Time,header.seq,header.stamp.secs,header.stamp.nsecs,header.frame_id,orientation.x,orientation.y,orientation.z,orientation.w,orientation_covariance_0,orientation_covariance_1,orientation_covariance_2,orientation_covariance_3,orientation_covariance_4,orientation_covariance_5,orientation_covariance_6,orientation_covariance_7,orientation_covariance_8,angular_velocity.x,angular_velocity.y,angular_velocity.z,angular_velocity_covariance_0,angular_velocity_covariance_1,angular_velocity_covariance_2,angular_velocity_covariance_3,angular_velocity_covariance_4,angular_velocity_covariance_5,angular_velocity_covariance_6,angular_velocity_covariance_7,angular_velocity_covariance_8,linear_acceleration.x,linear_acceleration.y,linear_acceleration.z,linear_acceleration_covariance_0,linear_acceleration_covariance_1,linear_acceleration_covariance_2,linear_acceleration_covariance_3,linear_acceleration_covariance_4,linear_acceleration_covariance_5,linear_acceleration_covariance_6,linear_acceleration_covariance_7,linear_acceleration_covariance_8
1349442726.0518146,0,1349442726,54150820,auk,-0.01309466932263163,0.0016034735440930052,0.35187789205177006,0.9359529409073553,0.0,0.0,0.0,0.0,0.0,0.0,0.0,0.0,0.0,-0.003926990816987241,0.0005235987755982988,0.0041887902047863905,0.000169,0.0,0.0,0.0,0.000169,0.0,0.0,0.0,0.000169,-0.07848,-0.22563,9.85905,0.006889000000000001,0.0,0.0,0.0,0.006889000000000001,0.0,0.0,0.0,0.006889000000000001
1349442726.0715735,1,1349442726,74151039,auk,-0.013145390687190409,0.0014933790980314852,0.3517138946271237,0.9360140516299803,0.0,0.0,0.0,0.0,0.0,0.0,0.0,0.0,0.0,-0.028797932657906436,-0.00471238898038469,-0.0057595865315812865,0.000169,0.0,0.0,0.0,0.000169,0.0,0.0,0.0,0.000169,-0.10790999999999999,-0.25505999999999995,9.87867,0.006889000000000001,0.0,0.0,0.0,0.006889000000000001,0.0,0.0,0.0,0.006889000000000001
1349442726.0917528,2,1349442726,94148874,auk,-0.013257619562478392,0.0015455301317796625,0.35163312319053786,0.9360427306140552,0.0,0.0,0.0,0.0,0.0,0.0,0.0,0.0,0.0,-0.00890117918517108,0.0041887902047863905,0.01754055898254301,0.000169,0.0,0.0,0.0,0.000169,0.0,0.0,0.0,0.000169,-0.13734,-0.24524999999999997,9.87867,0.006889000000000001,0.0,0.0,0.0,0.006889000000000001,0.0,0.0,0.0,0.006889000000000001
1349442726.1117065,3,1349442726,114148855,auk,-0.013420989635609611,0.0014841585509640168,0.35163338758075263,0.9360404024661974,0.0,0.0,0.0,0.0,0.0,0.0,0.0,0.0,0.0,-0.002356194490192345,-0.00471238898038469,0.0,0.000169,0.0,0.0,0.0,0.000169,0.0,0.0,0.0,0.000169,-0.11771999999999999,-0.23543999999999998,9.87867,0.006889000000000001,0.0,0.0,0.0,0.006889000000000001,0.0,0.0,0.0,0.006889000000000001
1349442726.1317103,4,1349442726,134148836,auk,-0.013227200865353287,0.0014615319794897483,0.35179570480528666,0.9359822045114387,0.0,0.0,0.0,0.0,0.0,0.0,0.0,0.0,0.0,0.007592182246175333,-0.0028797932657906433,-0.007068583470577034,0.000169,0.0,0.0,0.0,0.000169,0.0,0.0,0.0,0.000169,-0.07848,-0.20600999999999997,9.89829,0.006889000000000001,0.0,0.0,0.0,0.006889000000000001,0.0,0.0,0.0,0.006889000000000001
1349442726.1516368,5,1349442726,154149055,auk,-0.013196753151394033,0.001377544483783322,0.3519582733234998,0.9359216430431541,0.0,0.0,0.0,0.0,0.0,0.0,0.0,0.0,0.0,-0.0028797932657906433,0.006021385919380436,-0.0010471975511965976,0.000169,0.0,0.0,0.0,0.000169,0.0,0.0,0.0,0.000169,-0.09809999999999999,-0.19619999999999999,9.87867,0.006889000000000001,0.0,0.0,0.0,0.006889000000000001,0.0,0.0,0.0,0.006889000000000001
1349442726.1713655,6,1349442726,174149036,auk,-0.013145911173961654,0.0014887904001637626,0.3520406037337705,0.9358912232975117,0.0,0.0,0.0,0.0,0.0,0.0,0.0,0.0,0.0,-0.0015707963267948964,0.012304571226560023,-0.003926990816987241,0.000169,0.0,0.0,0.0,0.000169,0.0,0.0,0.0,0.000169,-0.13734,-0.19619999999999999,9.86886,0.006889000000000001,0.0,0.0,0.0,0.006889000000000001,0.0,0.0,0.0,0.006889000000000001
1349442726.1912496,7,1349442726,194146872,auk,-0.013044285619068976,0.001711309215631826,0.3522051978109368,0.9358303354072335,0.0,0.0,0.0,0.0,0.0,0.0,0.0,0.0,0.0,-0.010471975511965976,0.002617993877991494,-0.015707963267948963,0.000169,0.0,0.0,0.0,0.000169,0.0,0.0,0.0,0.000169,-0.15696,-0.19619999999999999,9.87867,0.006889000000000001,0.0,0.0,0.0,0.006889000000000001,0.0,0.0,0.0,0.006889000000000001
1349442726.2112188,8,1349442726,214146852,auk,-0.012993661047913383,0.0018214481988801066,0.35236912407446874,0.9357691208295038,0.0,0.0,0.0,0.0,0.0,0.0,0.0,0.0,0.0,0.00471238898038469,0.001308996938995747,-0.00890117918517108,0.000169,0.0,0.0,0.0,0.000169,0.0,0.0,0.0,0.000169,-0.16676999999999997,-0.22563,9.86886,0.006889000000000001,0.0,0.0,0.0,0.006889000000000001,0.0,0.0,0.0,0.006889000000000001
1349442726.2316577,9,1349442726,234146833,auk,-0.013024731141236532,0.0019008406879551009,0.3525331872990422,0.9357067355940941,0.0,0.0,0.0,0.0,0.0,0.0,0.0,0.0,0.0,-0.007853981633974482,0.00863937979737193,0.0057595865315812865,0.000169,0.0,0.0,0.0,0.000169,0.0,0.0,0.0,0.000169,-0.13734,-0.21581999999999998,9.85905,0.006889000000000001,0.0,0.0,0.0,0.006889000000000001,0.0,0.0,0.0,0.006889000000000001
1349442726.2518256,10,1349442726,254147053,auk,-0.012974178824262926,0.0020110010027047445,0.3526970626449051,0.9356454502430176,0.0,0.0,0.0,0.0,0.0,0.0,0.0,0.0,0.0,-0.006021385919380436,0.0,0.006544984694978735,0.000169,0.0,0.0,0.0,0.000169,0.0,0.0,0.0,0.000169,-0.15696,-0.18639,9.85905,0.006889000000000001,0.0,0.0,0.0,0.006889000000000001,0.0,0.0,0.0,0.006889000000000001
1349442726.271405,11,1349442726,274144888,auk,-0.012923665314640407,0.0021211791156386687,0.35286090771198114,0.9355841273144129,0.0,0.0,0.0,0.0,0.0,0.0,0.0,0.0,0.0,-0.0015707963267948964,-0.0007853981633974482,0.0049741883681838385,0.000169,0.0,0.0,0.0,0.000169,0.0,0.0,0.0,0.000169,-0.13734,-0.20600999999999997,9.86886,0.006889000000000001,0.0,0.0,0.0,0.006889000000000001,0.0,0.0,0.0,0.006889000000000001
1349442726.291279,12,1349442726,294144869,auk,-0.0128108776901035,0.002072558221815587,0.35269670628713584,0.9356477004136934,0.0,0.0,0.0,0.0,0.0,0.0,0.0,0.0,0.0,-0.010471975511965976,0.017016960206944712,-0.002617993877991494,0.000169,0.0,0.0,0.0,0.000169,0.0,0.0,0.0,0.000169,-0.08829,-0.20600999999999997,9.87867,0.006889000000000001,0.0,0.0,0.0,0.006889000000000001,0.0,0.0,0.0,0.006889000000000001
1349442726.3113449,13,1349442726,314144850,auk,-0.012779763247146261,0.0019931335943738143,0.3525326775789977,0.9357101133945301,0.0,0.0,0.0,0.0,0.0,0.0,0.0,0.0,0.0,0.010210176124166827,0.010471975511965976,0.00890117918517108,0.000169,0.0,0.0,0.0,0.000169,0.0,0.0,0.0,0.000169,-0.11771999999999999,-0.21581999999999998,9.89829,0.006889000000000001,0.0,0.0,0.0,0.006889000000000001,0.0,0.0,0.0,0.006889000000000001
1349442726.3317087,14,1349442726,334144831,auk,-0.0128101534503367,0.002077029935372561,0.3523700821460378,0.9357707577839891,0.0,0.0,0.0,0.0,0.0,0.0,0.0,0.0,0.0,-0.005235987755982988,0.00445058959258554,-0.005497787143782138,0.000169,0.0,0.0,0.0,0.000169,0.0,0.0,0.0,0.000169,-0.13734,-0.21581999999999998,9.87867,0.006889000000000001,0.0,0.0,0.0,0.006889000000000001,0.0,0.0,0.0,0.006889000000000001
1349442726.3534017,15,1349442726,354145050,auk,-0.01275884791722571,0.0021916728190005622,0.35220728368229437,0.9358324837764606,0.0,0.0,0.0,0.0,0.0,0.0,0.0,0.0,0.0,0.003141592653589793,-0.00445058959258554,-0.0036651914291880917,0.000169,0.0,0.0,0.0,0.000169,0.0,0.0,0.0,0.000169,-0.13734,-0.17658,9.829619999999998,0.006889000000000001,0.0,0.0,0.0,0.006889000000000001,0.0,0.0,0.0,0.006889000000000001
1349442726.3714309,16,1349442726,374142885,auk,-0.012676987088286107,0.0022235149786498194,0.3521254228533548,0.9358643259361099,0.0,0.0,0.0,0.0,0.0,0.0,0.0,0.0,0.0,0.01361356816555577,-0.009162978572970229,-0.009162978572970229,0.000169,0.0,0.0,0.0,0.000169,0.0,0.0,0.0,0.000169,-0.11771999999999999,-0.20600999999999997,9.85905,0.006889000000000001,0.0,0.0,0.0,0.006889000000000001,0.0,0.0,0.0,0.006889000000000001
1349442726.3915918,17,1349442726,394142866,auk,-0.012758273701391173,0.002195013002428715,0.3519622712438046,0.9359246593561803,0.0,0.0,0.0,0.0,0.0,0.0,0.0,0.0,0.0,0.003141592653589793,0.001308996938995747,0.011257373675363424,0.000169,0.0,0.0,0.0,0.000169,0.0,0.0,0.0,0.000169,-0.13734,-0.22563,9.88848,0.006889000000000001,0.0,0.0,0.0,0.006889000000000001,0.0,0.0,0.0,0.006889000000000001
1349442726.4115746,18,1349442726,414142847,auk,-0.012870258727448625,0.002248224063750647,0.3517998239530505,0.9359840734731817,0.0,0.0,0.0,0.0,0.0,0.0,0.0,0.0,0.0,-0.00863937979737193,-0.00471238898038469,0.0005235987755982988,0.000169,0.0,0.0,0.0,0.000169,0.0,0.0,0.0,0.000169,-0.12752999999999998,-0.22563,9.9081,0.006889000000000001,0.0,0.0,0.0,0.006889000000000001,0.0,0.0,0.0,0.006889000000000001
1349442726.4317715,19,1349442726,434142828,auk,-0.012726832625655334,0.002117776301137478,0.35163483743536716,0.9360483341455503,0.0,0.0,0.0,0.0,0.0,0.0,0.0,0.0,0.0,-0.0036651914291880917,0.0,0.0036651914291880917,0.000169,0.0,0.0,0.0,0.000169,0.0,0.0,0.0,0.000169,-0.09809999999999999,-0.19619999999999999,9.87867,0.006889000000000001,0.0,0.0,0.0,0.006889000000000001,0.0,0.0,0.0,0.006889000000000001
1349442726.451834,20,1349442726,454140902,auk,-0.012726462810123712,0.002119997520197303,0.35147146082660524,0.9361096917451871,0.0,0.0,0.0,0.0,0.0,0.0,0.0,0.0,0.0,-0.0015707963267948964,0.001308996938995747,0.0005235987755982988,0.000169,0.0,0.0,0.0,0.000169,0.0,0.0,0.0,0.000169,-0.12752999999999998,-0.21581999999999998,9.87867,0.006889000000000001,0.0,0.0,0.0,0.006889000000000001,0.0,0.0,0.0,0.006889000000000001
1349442726.4714987,21,1349442726,474140882,auk,-0.012838434392707678,0.002173261938650527,0.3513089778421254,0.9361690304760201,0.0,0.0,0.0,0.0,0.0,0.0,0.0,0.0,0.0,-0.0018325957145940458,-0.01308996938995747,0.007592182246175333,0.000169,0.0,0.0,0.0,0.000169,0.0,0.0,0.0,0.000169,-0.15696,-0.24524999999999997,9.84924,0.006889000000000001,0.0,0.0,0.0,0.006889000000000001,0.0,0.0,0.0,0.006889000000000001
1349442726.4918644,22,1349442726,494140863,auk,-0.012950387417684762,0.0022265653469093535,0.35114649376306467,0.9362283213994298,0.0,0.0,0.0,0.0,0.0,0.0,0.0,0.0,0.0,-0.006021385919380436,-0.019634954084936207,0.01361356816555577,0.000169,0.0,0.0,0.0,0.000169,0.0,0.0,0.0,0.000169,-0.13734,-0.21581999999999998,9.84924,0.006889000000000001,0.0,0.0,0.0,0.006889000000000001,0.0,0.0,0.0,0.006889000000000001
1349442726.51157,23,1349442726,514140844,auk,-0.013062918302266862,0.0022764879525395904,0.35122911608491797,0.93619564503486,0.0,0.0,0.0,0.0,0.0,0.0,0.0,0.0,0.0,0.007853981633974482,0.007068583470577034,0.007068583470577034,0.000169,0.0,0.0,0.0,0.000169,0.0,0.0,0.0,0.000169,-0.12752999999999998,-0.22563,9.85905,0.006889000000000001,0.0,0.0,0.0,0.006889000000000001,0.0,0.0,0.0,0.006889000000000001
1349442726.5316114,24,1349442726,534140825,auk,-0.013145008507035441,0.002243543218783772,0.35139270482313434,0.9361331861771897,0.0,0.0,0.0,0.0,0.0,0.0,0.0,0.0,0.0,-0.01308996938995747,-0.007068583470577034,-0.0057595865315812865,0.000169,0.0,0.0,0.0,0.000169,0.0,0.0,0.0,0.000169,-0.12752999999999998,-0.23543999999999998,9.84924,0.006889000000000001,0.0,0.0,0.0,0.006889000000000001,0.0,0.0,0.0,0.006889000000000001
1349442726.5516145,25,1349442726,554138899,auk,-0.013196421126690496,0.0021288775124446123,0.35155553637884684,0.9360715929838729,0.0,0.0,0.0,0.0,0.0,0.0,0.0,0.0,0.0,0.010471975511965976,0.00942477796076938,0.0002617993877991494,0.000169,0.0,0.0,0.0,0.000169,0.0,0.0,0.0,0.000169,-0.12752999999999998,-0.21581999999999998,9.87867,0.006889000000000001,0.0,0.0,0.0,0.006889000000000001,0.0,0.0,0.0,0.006889000000000001
1349442726.5715864,26,1349442726,574138880,auk,-0.01319679248491526,0.0021265742700502426,0.3517189063368399,0.9360102207108644,0.0,0.0,0.0,0.0,0.0,0.0,0.0,0.0,0.0,-0.009162978572970229,-0.0015707963267948964,0.006021385919380436,0.000169,0.0,0.0,0.0,0.000169,0.0,0.0,0.0,0.000169,-0.11771999999999999,-0.24524999999999997,9.88848,0.006889000000000001,0.0,0.0,0.0,0.006889000000000001,0.0,0.0,0.0,0.006889000000000001
1349442726.5914567,27,1349442726,594138861,auk,-0.013248145416449794,0.0020118818221272977,0.35188169672344544,0.9359485618801857,0.0,0.0,0.0,0.0,0.0,0.0,0.0,0.0,0.0,0.0020943951023931952,-0.003141592653589793,-0.010210176124166827,0.000169,0.0,0.0,0.0,0.000169,0.0,0.0,0.0,0.000169,-0.09809999999999999,-0.27468,9.89829,0.006889000000000001,0.0,0.0,0.0,0.006889000000000001,0.0,0.0,0.0,0.006889000000000001
1349442726.6114576,28,1349442726,614138842,auk,-0.0132994586674157,0.0018971716178565771,0.3520444566838973,0.9358868658428462,0.0,0.0,0.0,0.0,0.0,0.0,0.0,0.0,0.0,-0.007068583470577034,0.0,0.002617993877991494,0.000169,0.0,0.0,0.0,0.000169,0.0,0.0,0.0,0.000169,-0.08829,-0.23543999999999998,9.87867,0.006889000000000001,0.0,0.0,0.0,0.006889000000000001,0.0,0.0,0.0,0.006889000000000001
1349442726.6317685,29,1349442726,634136915,auk,-0.013350265131466657,0.00178593882342946,0.35196217569467736,0.9359173081654745,0.0,0.0,0.0,0.0,0.0,0.0,0.0,0.0,0.0,-0.0010471975511965976,-0.009162978572970229,0.0002617993877991494,0.000169,0.0,0.0,0.0,0.000169,0.0,0.0,0.0,0.000169,-0.07848,-0.23543999999999998,9.87867,0.006889000000000001,0.0,0.0,0.0,0.006889000000000001,0.0,0.0,0.0,0.006889000000000001
1349442726.651586,30,1349442726,654136896,auk,-0.013400944863792695,0.0016758844789836651,0.3517981942699749,0.9359784381044018,0.0,0.0,0.0,0.0,0.0,0.0,0.0,0.0,0.0,0.014137166941154067,-0.007853981633974482,-0.011257373675363424,0.000169,0.0,0.0,0.0,0.000169,0.0,0.0,0.0,0.000169,-0.09809999999999999,-0.23543999999999998,9.89829,0.006889000000000001,0.0,0.0,0.0,0.006889000000000001,0.0,0.0,0.0,0.006889000000000001
1349442726.671508,31,1349442726,674136877,auk,-0.013257619562478392,0.0015455301317796625,0.35163312319053786,0.9360427306140552,0.0,0.0,0.0,0.0,0.0,0.0,0.0,0.0,0.0,-0.006021385919380436,0.0,0.00445058959258554,0.000169,0.0,0.0,0.0,0.000169,0.0,0.0,0.0,0.000169,-0.09809999999999999,-0.20600999999999997,9.9081,0.006889000000000001,0.0,0.0,0.0,0.006889000000000001,0.0,0.0,0.0,0.006889000000000001
1349442726.6918905,32,1349442726,694136858,auk,-0.013144999270975824,0.0014968205020491655,0.3514688346711898,0.9361060980345266,0.0,0.0,0.0,0.0,0.0,0.0,0.0,0.0,0.0,-0.0034033920413889425,-0.003141592653589793,-0.0041887902047863905,0.000169,0.0,0.0,0.0,0.000169,0.0,0.0,0.0,0.000169,-0.08829,-0.21581999999999998,9.91791,0.006889000000000001,0.0,0.0,0.0,0.006889000000000001,0.0,0.0,0.0,0.006889000000000001
1349442726.7112806,33,1349442726,714136839,auk,-0.013063041756633156,0.0015297718924045366,0.35130531582314584,0.9361685701904447,0.0,0.0,0.0,0.0,0.0,0.0,0.0,0.0,0.0,0.0007853981633974482,0.005497787143782138,-0.008377580409572781,0.000169,0.0,0.0,0.0,0.000169,0.0,0.0,0.0,0.000169,-0.12752999999999998,-0.21581999999999998,9.89829,0.006889000000000001,0.0,0.0,0.0,0.006889000000000001,0.0,0.0,0.0,0.006889000000000001
1349442726.7317498,34,1349442726,734134912,auk,-0.0129300029313662,0.001675043513308193,0.3511424008765092,0.9362312874285417,0.0,0.0,0.0,0.0,0.0,0.0,0.0,0.0,0.0,-0.011257373675363424,-0.006283185307179586,0.0018325957145940458,0.000169,0.0,0.0,0.0,0.000169,0.0,0.0,0.0,0.000169,-0.15696,-0.20600999999999997,9.84924,0.006889000000000001,0.0,0.0,0.0,0.006889000000000001,0.0,0.0,0.0,0.006889000000000001
1349442726.7516375,35,1349442726,754134893,auk,-0.012878620616006484,0.0017896401960997765,0.3509795903638881,0.9362928310453918,0.0,0.0,0.0,0.0,0.0,0.0,0.0,0.0,0.0,0.007330382858376183,-0.011519173063162573,-0.001308996938995747,0.000169,0.0,0.0,0.0,0.000169,0.0,0.0,0.0,0.000169,-0.13734,-0.19619999999999999,9.87867,0.006889000000000001,0.0,0.0,0.0,0.006889000000000001,0.0,0.0,0.0,0.006889000000000001
1349442726.7715101,36,1349442726,774134874,auk,-0.012796754706591328,0.001821385670992116,0.3508977244544729,0.9363245765202842,0.0,0.0,0.0,0.0,0.0,0.0,0.0,0.0,0.0,0.01282817000215832,0.002356194490192345,0.001308996938995747,0.000169,0.0,0.0,0.0,0.000169,0.0,0.0,0.0,0.000169,-0.10790999999999999,-0.21581999999999998,9.89829,0.006889000000000001,0.0,0.0,0.0,0.006889000000000001,0.0,0.0,0.0,0.006889000000000001
1349442726.7912958,37,1349442726,794134855,auk,-0.012654118871387518,0.0016863705012657793,0.3510595130288194,0.9362661201507239,0.0,0.0,0.0,0.0,0.0,0.0,0.0,0.0,0.0,0.0,-0.0020943951023931952,0.022776546738526,0.000169,0.0,0.0,0.0,0.000169,0.0,0.0,0.0,0.000169,-0.10790999999999999,-0.21581999999999998,9.9081,0.006889000000000001,0.0,0.0,0.0,0.006889000000000001,0.0,0.0,0.0,0.006889000000000001
1349442726.8112795,38,1349442726,814132929,auk,-0.012542074648130152,0.0016331083811624292,0.3512220391728064,0.9362067659015457,0.0,0.0,0.0,0.0,0.0,0.0,0.0,0.0,0.0,-0.0049741883681838385,-0.010210176124166827,0.001308996938995747,0.000169,0.0,0.0,0.0,0.000169,0.0,0.0,0.0,0.000169,-0.09809999999999999,-0.17658,9.85905,0.006889000000000001,0.0,0.0,0.0,0.006889000000000001,0.0,0.0,0.0,0.006889000000000001
1349442726.8317664,39,1349442726,834132910,auk,-0.012348176976252519,0.001611626942166428,0.3513027292891734,0.9361791055016878,0.0,0.0,0.0,0.0,0.0,0.0,0.0,0.0,0.0,-0.00471238898038469,0.002617993877991494,0.00445058959258554,0.000169,0.0,0.0,0.0,0.000169,0.0,0.0,0.0,0.000169,-0.07848,-0.16676999999999997,9.829619999999998,0.006889000000000001,0.0,0.0,0.0,0.006889000000000001,0.0,0.0,0.0,0.006889000000000001
1349442726.8518436,40,1349442726,854132891,auk,-0.012235287840012212,0.0015648538500208976,0.35097506374827775,0.9363035584631687,0.0,0.0,0.0,0.0,0.0,0.0,0.0,0.0,0.0,0.009948376736367677,-0.007330382858376183,-0.010995574287564275,0.000169,0.0,0.0,0.0,0.000169,0.0,0.0,0.0,0.000169,-0.08829,-0.17658,9.85905,0.006889000000000001,0.0,0.0,0.0,0.006889000000000001,0.0,0.0,0.0,0.006889000000000001
1349442726.8715246,41,1349442726,874132872,auk,-0.012235014535139555,0.0015669892867533437,0.3508116426045183,0.9363648009066871,0.0,0.0,0.0,0.0,0.0,0.0,0.0,0.0,0.0,-0.009686577348568528,0.009686577348568528,-0.0217293491873294,0.000169,0.0,0.0,0.0,0.000169,0.0,0.0,0.0,0.000169,-0.11771999999999999,-0.21581999999999998,9.87867,0.006889000000000001,0.0,0.0,0.0,0.006889000000000001,0.0,0.0,0.0,0.006889000000000001
1349442726.891999,42,1349442726,894132853,auk,-0.012347048839310003,0.0016202472025166476,0.35064906742074775,0.9364241329124973,0.0,0.0,0.0,0.0,0.0,0.0,0.0,0.0,0.0,0.0034033920413889425,-0.0002617993877991494,0.005497787143782138,0.000169,0.0,0.0,0.0,0.000169,0.0,0.0,0.0,0.000169,-0.13734,-0.20600999999999997,9.87867,0.006889000000000001,0.0,0.0,0.0,0.006889000000000001,0.0,0.0,0.0,0.006889000000000001
1349442726.91155,43,1349442726,914130926,auk,-0.012265186260537918,0.0016519174457428226,0.3505672048419757,0.9364558031557234,0.0,0.0,0.0,0.0,0.0,0.0,0.0,0.0,0.0,0.0002617993877991494,0.0020943951023931952,-0.001308996938995747,0.000169,0.0,0.0,0.0,0.000169,0.0,0.0,0.0,0.000169,-0.09809999999999999,-0.17658,9.89829,0.006889000000000001,0.0,0.0,0.0,0.006889000000000001,0.0,0.0,0.0,0.006889000000000001
1349442726.9318585,44,1349442726,934130907,auk,-0.01207101877132468,0.0016324311245540781,0.3504844886881828,0.9364893212757041,0.0,0.0,0.0,0.0,0.0,0.0,0.0,0.0,0.0,-0.0020943951023931952,-0.0041887902047863905,0.0036651914291880917,0.000169,0.0,0.0,0.0,0.000169,0.0,0.0,0.0,0.000169,-0.07848,-0.20600999999999997,9.87867,0.006889000000000001,0.0,0.0,0.0,0.006889000000000001,0.0,0.0,0.0,0.006889000000000001
1349442726.9516299,45,1349442726,954130888,auk,-0.012203631306297355,0.0014916622012501367,0.3503205982073935,0.9365491577052596,0.0,0.0,0.0,0.0,0.0,0.0,0.0,0.0,0.0,0.014922565104551515,0.0034033920413889425,-0.003141592653589793,0.000169,0.0,0.0,0.0,0.000169,0.0,0.0,0.0,0.000169,-0.10790999999999999,-0.21581999999999998,9.86886,0.006889000000000001,0.0,0.0,0.0,0.006889000000000001,0.0,0.0,0.0,0.006889000000000001
1349442726.9712338,46,1349442726,974130869,auk,-0.012234192384355812,0.0015733953102911535,0.35032131507515163,0.936548357089967,0.0,0.0,0.0,0.0,0.0,0.0,0.0,0.0,0.0,-0.0028797932657906433,-0.009162978572970229,0.014660765716752367,0.000169,0.0,0.0,0.0,0.000169,0.0,0.0,0.0,0.000169,-0.14715,-0.22563,9.88848,0.006889000000000001,0.0,0.0,0.0,0.006889000000000001,0.0,0.0,0.0,0.006889000000000001
1349442726.9911945,47,1349442726,994128942,auk,-0.012458479655959621,0.0016778930533866607,0.3501595754118886,0.936605702901135,0.0,0.0,0.0,0.0,0.0,0.0,0.0,0.0,0.0,0.0036651914291880917,-0.0010471975511965976,0.0005235987755982988,0.000169,0.0,0.0,0.0,0.000169,0.0,0.0,0.0,0.000169,-0.15696,-0.25505999999999995,9.88848,0.006889000000000001,0.0,0.0,0.0,0.006889000000000001,0.0,0.0,0.0,0.006889000000000001
1349442727.0113912,48,1349442727,14128923,auk,-0.012570458219202224,0.0017312680601756633,0.3499969773787753,0.9366648825042948,0.0,0.0,0.0,0.0,0.0,0.0,0.0,0.0,0.0,-0.009162978572970229,-0.001308996938995747,0.0028797932657906433,0.000169,0.0,0.0,0.0,0.000169,0.0,0.0,0.0,0.000169,-0.13734,-0.27468,9.87867,0.006889000000000001,0.0,0.0,0.0,0.006889000000000001,0.0,0.0,0.0,0.006889000000000001
1349442727.0318873,49,1349442727,34128904,auk,-0.012682418190265053,0.0017846820507085442,0.34983437829412756,0.9367240142872321,0.0,0.0,0.0,0.0,0.0,0.0,0.0,0.0,0.0,-0.0041887902047863905,-0.003926990816987241,0.0002617993877991494,0.000169,0.0,0.0,0.0,0.000169,0.0,0.0,0.0,0.000169,-0.13734,-0.28448999999999997,9.87867,0.006889000000000001,0.0,0.0,0.0,0.006889000000000001,0.0,0.0,0.0,0.006889000000000001
1349442727.0516925,50,1349442727,54128885,auk,-0.012876109253945629,0.001807620392388582,0.3496719372491662,0.9367819781674991,0.0,0.0,0.0,0.0,0.0,0.0,0.0,0.0,0.0,0.010995574287564275,-0.006544984694978735,0.0041887902047863905,0.000169,0.0,0.0,0.0,0.000169,0.0,0.0,0.0,0.000169,-0.13734,-0.23543999999999998,9.88848,0.006889000000000001,0.0,0.0,0.0,0.006889000000000001,0.0,0.0,0.0,0.006889000000000001
1349442727.0715098,51,1349442727,74128866,auk,-0.012906282301497048,0.0018916269570642599,0.34950917703075374,0.9368421344046683,0.0,0.0,0.0,0.0,0.0,0.0,0.0,0.0,0.0,-0.0002617993877991494,0.0,-0.012566370614359171,0.000169,0.0,0.0,0.0,0.000169,0.0,0.0,0.0,0.000169,-0.14715,-0.22563,9.88848,0.006889000000000001,0.0,0.0,0.0,0.006889000000000001,0.0,0.0,0.0,0.006889000000000001
1349442727.091309,52,1349442727,94126940,auk,-0.013018016617879706,0.0019462939035742102,0.349264813505389,0.9369316054176117,0.0,0.0,0.0,0.0,0.0,0.0,0.0,0.0,0.0,-0.0057595865315812865,0.012042771838760872,0.0028797932657906433,0.000169,0.0,0.0,0.0,0.000169,0.0,0.0,0.0,0.000169,-0.11771999999999999,-0.26487,9.9081,0.006889000000000001,0.0,0.0,0.0,0.006889000000000001,0.0,0.0,0.0,0.006889000000000001
1349442727.1114042,53,1349442727,114126921,auk,-0.01309944470283063,0.0019181011050220086,0.34910145148798455,0.9369914097821873,0.0,0.0,0.0,0.0,0.0,0.0,0.0,0.0,0.0,0.008377580409572781,0.009162978572970229,-0.002617993877991494,0.000169,0.0,0.0,0.0,0.000169,0.0,0.0,0.0,0.000169,-0.11771999999999999,-0.26487,9.9081,0.006889000000000001,0.0,0.0,0.0,0.006889000000000001,0.0,0.0,0.0,0.006889000000000001
1349442727.1317074,54,1349442727,134126902,auk,-0.013180882923229947,0.001889936775824311,0.34893807657681414,0.9370511785272035,0.0,0.0,0.0,0.0,0.0,0.0,0.0,0.0,0.0,0.001308996938995747,-0.002617993877991494,0.007853981633974482,0.000169,0.0,0.0,0.0,0.000169,0.0,0.0,0.0,0.000169,-0.13734,-0.21581999999999998,9.89829,0.006889000000000001,0.0,0.0,0.0,0.006889000000000001,0.0,0.0,0.0,0.006889000000000001
1349442727.1516342,55,1349442727,154124975,auk,-0.013098774361187051,0.0019226735568766955,0.3487743585228782,0.9371132120899712,0.0,0.0,0.0,0.0,0.0,0.0,0.0,0.0,0.0,0.006283185307179586,0.009686577348568528,-0.002617993877991494,0.000169,0.0,0.0,0.0,0.000169,0.0,0.0,0.0,0.000169,-0.09809999999999999,-0.19619999999999999,9.87867,0.006889000000000001,0.0,0.0,0.0,0.006889000000000001,0.0,0.0,0.0,0.006889000000000001
1349442727.1716533,56,1349442727,174124956,auk,-0.012874209258526923,0.0018211032288651093,0.34869074990584475,0.937147640048833,0.0,0.0,0.0,0.0,0.0,0.0,0.0,0.0,0.0,-0.002617993877991494,-0.0002617993877991494,-0.002617993877991494,0.000169,0.0,0.0,0.0,0.000169,0.0,0.0,0.0,0.000169,-0.10790999999999999,-0.21581999999999998,9.85905,0.006889000000000001,0.0,0.0,0.0,0.006889000000000001,0.0,0.0,0.0,0.006889000000000001
1349442727.191629,57,1349442727,194123030,auk,-0.01298608106306767,0.0018747265381117246,0.34852809170907245,0.9372064961302089,0.0,0.0,0.0,0.0,0.0,0.0,0.0,0.0,0.0,-0.002617993877991494,0.00863937979737193,-0.012042771838760872,0.000169,0.0,0.0,0.0,0.000169,0.0,0.0,0.0,0.000169,-0.11771999999999999,-0.24524999999999997,9.87867,0.006889000000000001,0.0,0.0,0.0,0.006889000000000001,0.0,0.0,0.0,0.006889000000000001
1349442727.2113707,58,1349442727,214123011,auk,-0.013037156944796187,0.0017647961185668724,0.3483639157520231,0.9372670378474717,0.0,0.0,0.0,0.0,0.0,0.0,0.0,0.0,0.0,-0.0049741883681838385,0.014660765716752367,0.0,0.000169,0.0,0.0,0.0,0.000169,0.0,0.0,0.0,0.000169,-0.10790999999999999,-0.23543999999999998,9.88848,0.006889000000000001,0.0,0.0,0.0,0.006889000000000001,0.0,0.0,0.0,0.006889000000000001
1349442727.2317636,59,1349442727,234122992,auk,-0.013006474236327472,0.0016852698449384886,0.34819956395655083,0.9373286804285663,0.0,0.0,0.0,0.0,0.0,0.0,0.0,0.0,0.0,0.003141592653589793,-0.0015707963267948964,-0.0057595865315812865,0.000169,0.0,0.0,0.0,0.000169,0.0,0.0,0.0,0.000169,-0.09809999999999999,-0.21581999999999998,9.87867,0.006889000000000001,0.0,0.0,0.0,0.006889000000000001,0.0,0.0,0.0,0.006889000000000001
1349442727.2518187,60,1349442727,254120827,auk,-0.012945459171584222,0.0015239259193651489,0.3480344306222462,0.937391128525376,0.0,0.0,0.0,0.0,0.0,0.0,0.0,0.0,0.0,0.006021385919380436,-0.001308996938995747,-0.0028797932657906433,0.000169,0.0,0.0,0.0,0.000169,0.0,0.0,0.0,0.000169,-0.08829,-0.23543999999999998,9.88848,0.006889000000000001,0.0,0.0,0.0,0.006889000000000001,0.0,0.0,0.0,0.006889000000000001
1349442727.2718132,61,1349442727,274121046,auk,-0.012914846763865156,0.0014443730106730845,0.34787004892758916,0.937452691915058,0.0,0.0,0.0,0.0,0.0,0.0,0.0,0.0,0.0,-0.0005235987755982988,-0.016231562043547264,0.0034033920413889425,0.000169,0.0,0.0,0.0,0.000169,0.0,0.0,0.0,0.000169,-0.10790999999999999,-0.20600999999999997,9.9081,0.006889000000000001,0.0,0.0,0.0,0.006889000000000001,0.0,0.0,0.0,0.006889000000000001
1349442727.2915454,62,1349442727,294118881,auk,-0.012863112978618921,0.0015587878154934894,0.3477070634880582,0.9375136844364231,0.0,0.0,0.0,0.0,0.0,0.0,0.0,0.0,0.0,0.016755160819145562,-0.010995574287564275,-0.010471975511965976,0.000169,0.0,0.0,0.0,0.000169,0.0,0.0,0.0,0.000169,-0.13734,-0.19619999999999999,9.87867,0.006889000000000001,0.0,0.0,0.0,0.006889000000000001,0.0,0.0,0.0,0.006889000000000001
1349442727.311497,63,1349442727,314118862,auk,-0.01272952072894406,0.0017035136449596623,0.347543900444382,0.9375757540632003,0.0,0.0,0.0,0.0,0.0,0.0,0.0,0.0,0.0,-0.0041887902047863905,-0.0015707963267948964,-0.0010471975511965976,0.000169,0.0,0.0,0.0,0.000169,0.0,0.0,0.0,0.000169,-0.14715,-0.21581999999999998,9.86886,0.006889000000000001,0.0,0.0,0.0,0.006889000000000001,0.0,0.0,0.0,0.006889000000000001
1349442727.3317912,64,1349442727,334118843,auk,-0.012677702446982244,0.0018178783899556097,0.347380844497869,0.937636667400957,0.0,0.0,0.0,0.0,0.0,0.0,0.0,0.0,0.0,-0.00445058959258554,-0.010471975511965976,-0.002617993877991494,0.000169,0.0,0.0,0.0,0.000169,0.0,0.0,0.0,0.000169,-0.14715,-0.19619999999999999,9.86886,0.006889000000000001,0.0,0.0,0.0,0.006889000000000001,0.0,0.0,0.0,0.006889000000000001
1349442727.351837,65,1349442727,354116917,auk,-0.012625844587210762,0.0019322251962019068,0.3472177583042708,0.937697543386143,0.0,0.0,0.0,0.0,0.0,0.0,0.0,0.0,0.0,-0.0018325957145940458,0.0041887902047863905,0.00942477796076938,0.000169,0.0,0.0,0.0,0.000169,0.0,0.0,0.0,0.000169,-0.14715,-0.21581999999999998,9.83943,0.006889000000000001,0.0,0.0,0.0,0.006889000000000001,0.0,0.0,0.0,0.006889000000000001
1349442727.3713958,66,1349442727,374116898,auk,-0.012686056674937706,0.0020981068148237863,0.34705554173007114,0.9377564251276984,0.0,0.0,0.0,0.0,0.0,0.0,0.0,0.0,0.0,-0.013875367553354919,-0.01361356816555577,0.008377580409572781,0.000169,0.0,0.0,0.0,0.000169,0.0,0.0,0.0,0.000169,-0.12752999999999998,-0.22563,9.83943,0.006889000000000001,0.0,0.0,0.0,0.006889000000000001,0.0,0.0,0.0,0.006889000000000001
1349442727.3915126,67,1349442727,394114971,auk,-0.012737616677065364,0.001985981557230252,0.3470549937783316,0.9377561731559888,0.0,0.0,0.0,0.0,0.0,0.0,0.0,0.0,0.0,-0.0034033920413889425,-0.00890117918517108,-0.005497787143782138,0.000169,0.0,0.0,0.0,0.000169,0.0,0.0,0.0,0.000169,-0.10790999999999999,-0.20600999999999997,9.84924,0.006889000000000001,0.0,0.0,0.0,0.006889000000000001,0.0,0.0,0.0,0.006889000000000001
1349442727.411424,68,1349442727,414114952,auk,-0.012625675920677506,0.0019333270016375988,0.34713592743466776,0.9377278402811359,0.0,0.0,0.0,0.0,0.0,0.0,0.0,0.0,0.0,0.0049741883681838385,-0.00471238898038469,0.0015707963267948964,0.000169,0.0,0.0,0.0,0.000169,0.0,0.0,0.0,0.000169,-0.10790999999999999,-0.19619999999999999,9.829619999999998,0.006889000000000001,0.0,0.0,0.0,0.006889000000000001,0.0,0.0,0.0,0.006889000000000001
1349442727.4316194,69,1349442727,434114933,auk,-0.012574660771933234,0.0020421647897928006,0.3473819601498715,0.9376371799538855,0.0,0.0,0.0,0.0,0.0,0.0,0.0,0.0,0.0,-0.012566370614359171,0.006806784082777885,-0.008115781021773632,0.000169,0.0,0.0,0.0,0.000169,0.0,0.0,0.0,0.000169,-0.15696,-0.20600999999999997,9.84924,0.006889000000000001,0.0,0.0,0.0,0.006889000000000001,0.0,0.0,0.0,0.006889000000000001
1349442727.4517524,70,1349442727,454113007,auk,-0.012686970939085027,0.0020925712788226604,0.3474646821098548,0.9376049043174484,0.0,0.0,0.0,0.0,0.0,0.0,0.0,0.0,0.0,-0.010471975511965976,-0.0015707963267948964,0.008115781021773632,0.000169,0.0,0.0,0.0,0.000169,0.0,0.0,0.0,0.000169,-0.12752999999999998,-0.24524999999999997,9.89829,0.006889000000000001,0.0,0.0,0.0,0.006889000000000001,0.0,0.0,0.0,0.006889000000000001
1349442727.4715295,71,1349442727,474112988,auk,-0.01273830913937246,0.001981535169330196,0.34738231128393443,0.9376349709805379,0.0,0.0,0.0,0.0,0.0,0.0,0.0,0.0,0.0,0.0034033920413889425,0.0015707963267948964,-0.0034033920413889425,0.000169,0.0,0.0,0.0,0.000169,0.0,0.0,0.0,0.000169,-0.08829,-0.25505999999999995,9.88848,0.006889000000000001,0.0,0.0,0.0,0.006889000000000001,0.0,0.0,0.0,0.006889000000000001
1349442727.4917948,72,1349442727,494112968,auk,-0.012789503489276769,0.0018716242360420693,0.3472180902527559,0.9376953254786151,0.0,0.0,0.0,0.0,0.0,0.0,0.0,0.0,0.0,-0.012304571226560023,0.017016960206944712,-0.009162978572970229,0.000169,0.0,0.0,0.0,0.000169,0.0,0.0,0.0,0.000169,-0.09809999999999999,-0.24524999999999997,9.86886,0.006889000000000001,0.0,0.0,0.0,0.006889000000000001,0.0,0.0,0.0,0.006889000000000001
1349442727.5115123,73,1349442727,514111042,auk,-0.012840736545462087,0.0017617313374888631,0.3470538391662475,0.937755642215835,0.0,0.0,0.0,0.0,0.0,0.0,0.0,0.0,0.0,-0.008377580409572781,-0.010995574287564275,0.006021385919380436,0.000169,0.0,0.0,0.0,0.000169,0.0,0.0,0.0,0.000169,-0.11771999999999999,-0.21581999999999998,9.85905,0.006889000000000001,0.0,0.0,0.0,0.006889000000000001,0.0,0.0,0.0,0.006889000000000001
1349442727.5317862,74,1349442727,534111023,auk,-0.012871011226867304,0.0018435701777743986,0.3470545884603849,0.9377547925484521,0.0,0.0,0.0,0.0,0.0,0.0,0.0,0.0,0.0,-0.014922565104551515,-0.003926990816987241,0.0034033920413889425,0.000169,0.0,0.0,0.0,0.000169,0.0,0.0,0.0,0.000169,-0.12752999999999998,-0.22563,9.84924,0.006889000000000001,0.0,0.0,0.0,0.006889000000000001,0.0,0.0,0.0,0.006889000000000001
1349442727.5573487,75,1349442727,554108858,auk,-0.012983285561005224,0.0018939897071152097,0.3471373348623017,0.937722516442753,0.0,0.0,0.0,0.0,0.0,0.0,0.0,0.0,0.0,-0.001308996938995747,0.00445058959258554,-0.01754055898254301,0.000169,0.0,0.0,0.0,0.000169,0.0,0.0,0.0,0.000169,-0.12752999999999998,-0.23543999999999998,9.829619999999998,0.006889000000000001,0.0,0.0,0.0,0.006889000000000001,0.0,0.0,0.0,0.006889000000000001
1349442727.5714757,76,1349442727,574108839,auk,-0.012953319994020033,0.0018098928353474921,0.3473002394601687,0.93766277491429,0.0,0.0,0.0,0.0,0.0,0.0,0.0,0.0,0.0,0.0005235987755982988,0.002356194490192345,-0.009948376736367677,0.000169,0.0,0.0,0.0,0.000169,0.0,0.0,0.0,0.000169,-0.06867,-0.20600999999999997,9.84924,0.006889000000000001,0.0,0.0,0.0,0.006889000000000001,0.0,0.0,0.0,0.006889000000000001
1349442727.5914495,77,1349442727,594108820,auk,-0.012923325369457717,0.001725806469956872,0.3474631311326506,0.9376029979457821,0.0,0.0,0.0,0.0,0.0,0.0,0.0,0.0,0.0,0.00942477796076938,0.0007853981633974482,0.011780972450961723,0.000169,0.0,0.0,0.0,0.000169,0.0,0.0,0.0,0.000169,-0.07848,-0.21581999999999998,9.86886,0.006889000000000001,0.0,0.0,0.0,0.006889000000000001,0.0,0.0,0.0,0.006889000000000001
1349442727.6114538,78,1349442727,614106894,auk,-0.012810901122080266,0.0016765386552084456,0.3472985794066278,0.9376655943206599,0.0,0.0,0.0,0.0,0.0,0.0,0.0,0.0,0.0,-0.0041887902047863905,0.0002617993877991494,0.0034033920413889425,0.000169,0.0,0.0,0.0,0.000169,0.0,0.0,0.0,0.000169,-0.11771999999999999,-0.22563,9.85905,0.006889000000000001,0.0,0.0,0.0,0.006889000000000001,0.0,0.0,0.0,0.006889000000000001
1349442727.6318974,79,1349442727,634106874,auk,-0.012922722162032892,0.0017303174562831895,0.34713582478281835,0.9377242283346293,0.0,0.0,0.0,0.0,0.0,0.0,0.0,0.0,0.0,0.002356194490192345,0.006283185307179586,-0.005497787143782138,0.000169,0.0,0.0,0.0,0.000169,0.0,0.0,0.0,0.000169,-0.14715,-0.23543999999999998,9.86886,0.006889000000000001,0.0,0.0,0.0,0.006889000000000001,0.0,0.0,0.0,0.006889000000000001
1349442727.651568,80,1349442727,654104948,auk,-0.013034835663332224,0.0017818602002622214,0.3471367379627931,0.937722242025861,0.0,0.0,0.0,0.0,0.0,0.0,0.0,0.0,0.0,0.009948376736367677,0.003141592653589793,-0.0036651914291880917,0.000169,0.0,0.0,0.0,0.000169,0.0,0.0,0.0,0.000169,-0.16676999999999997,-0.24524999999999997,9.85905,0.006889000000000001,0.0,0.0,0.0,0.006889000000000001,0.0,0.0,0.0,0.006889000000000001
1349442727.6715925,81,1349442727,674104929,auk,-0.01314662862685886,0.0018356973315746183,0.346973991796448,0.9377808088182935,0.0,0.0,0.0,0.0,0.0,0.0,0.0,0.0,0.0,-0.020420352248333655,-0.007068583470577034,-0.0010471975511965976,0.000169,0.0,0.0,0.0,0.000169,0.0,0.0,0.0,0.000169,-0.16676999999999997,-0.22563,9.84924,0.006889000000000001,0.0,0.0,0.0,0.006889000000000001,0.0,0.0,0.0,0.006889000000000001
1349442727.6913378,82,1349442727,694104910,auk,-0.013095058955026283,0.0019478178395296681,0.3469745886480526,0.9377810833393597,0.0,0.0,0.0,0.0,0.0,0.0,0.0,0.0,0.0,0.0020943951023931952,-0.0002617993877991494,0.006544984694978735,0.000169,0.0,0.0,0.0,0.000169,0.0,0.0,0.0,0.000169,-0.13734,-0.21581999999999998,9.88848,0.006889000000000001,0.0,0.0,0.0,0.006889000000000001,0.0,0.0,0.0,0.006889000000000001
1349442727.711381,83,1349442727,714102983,auk,-0.01304366894994174,0.0020588001829394747,0.3470570014706477,0.9377510659937072,0.0,0.0,0.0,0.0,0.0,0.0,0.0,0.0,0.0,0.012304571226560023,0.00471238898038469,0.00942477796076938,0.000169,0.0,0.0,0.0,0.000169,0.0,0.0,0.0,0.000169,-0.15696,-0.19619999999999999,9.9081,0.006889000000000001,0.0,0.0,0.0,0.006889000000000001,0.0,0.0,0.0,0.006889000000000001
1349442727.7315617,84,1349442727,734102964,auk,-0.013022776142180713,0.002250491287217633,0.34722195832644287,0.9376898497085627,0.0,0.0,0.0,0.0,0.0,0.0,0.0,0.0,0.0,-0.010733774899765125,-0.006021385919380436,-0.002617993877991494,0.000169,0.0,0.0,0.0,0.000169,0.0,0.0,0.0,0.000169,-0.13734,-0.21581999999999998,9.88848,0.006889000000000001,0.0,0.0,0.0,0.006889000000000001,0.0,0.0,0.0,0.006889000000000001
1349442727.7568533,85,1349442727,754101038,auk,-0.013074689588546837,0.0021360751011398208,0.34738506274985764,0.937628981982534,0.0,0.0,0.0,0.0,0.0,0.0,0.0,0.0,0.0,-0.003141592653589793,-0.0049741883681838385,0.00445058959258554,0.000169,0.0,0.0,0.0,0.000169,0.0,0.0,0.0,0.000169,-0.10790999999999999,-0.22563,9.85905,0.006889000000000001,0.0,0.0,0.0,0.006889000000000001,0.0,0.0,0.0,0.006889000000000001
1349442727.771614,86,1349442727,774101019,auk,-0.013156696815279005,0.0021046118970832247,0.34746706997658977,0.9375975187784773,0.0,0.0,0.0,0.0,0.0,0.0,0.0,0.0,0.0,-0.00890117918517108,-0.008377580409572781,-0.0036651914291880917,0.000169,0.0,0.0,0.0,0.000169,0.0,0.0,0.0,0.000169,-0.15696,-0.24524999999999997,9.86886,0.006889000000000001,0.0,0.0,0.0,0.006889000000000001,0.0,0.0,0.0,0.006889000000000001
1349442727.791835,87,1349442727,794101000,auk,-0.013238879414091543,0.002071979078260471,0.34763088845910983,0.9375357083139225,0.0,0.0,0.0,0.0,0.0,0.0,0.0,0.0,0.0,0.0002617993877991494,0.0020943951023931952,-0.012566370614359171,0.000169,0.0,0.0,0.0,0.000169,0.0,0.0,0.0,0.000169,-0.10790999999999999,-0.22563,9.91791,0.006889000000000001,0.0,0.0,0.0,0.006889000000000001,0.0,0.0,0.0,0.006889000000000001
1349442727.8115993,88,1349442727,814098835,auk,-0.013127092261065443,0.002018204367672069,0.34779357976464154,0.9374770568789381,0.0,0.0,0.0,0.0,0.0,0.0,0.0,0.0,0.0,0.00942477796076938,0.005497787143782138,-0.009948376736367677,0.000169,0.0,0.0,0.0,0.000169,0.0,0.0,0.0,0.000169,-0.07848,-0.22563,9.9081,0.006889000000000001,0.0,0.0,0.0,0.006889000000000001,0.0,0.0,0.0,0.006889000000000001
1349442727.8316894,89,1349442727,834099054,auk,-0.013178564093388054,0.00190603884770775,0.34779299246198525,0.9374767873705915,0.0,0.0,0.0,0.0,0.0,0.0,0.0,0.0,0.0,0.012304571226560023,-0.0010471975511965976,-0.007592182246175333,0.000169,0.0,0.0,0.0,0.000169,0.0,0.0,0.0,0.000169,-0.08829,-0.24524999999999997,9.89829,0.006889000000000001,0.0,0.0,0.0,0.006889000000000001,0.0,0.0,0.0,0.006889000000000001
1349442727.8516853,90,1349442727,854096889,auk,-0.01326053796028726,0.0018745309832186759,0.3478749663288846,0.9374452795061022,0.0,0.0,0.0,0.0,0.0,0.0,0.0,0.0,0.0,0.0034033920413889425,-0.001308996938995747,-0.0036651914291880917,0.000169,0.0,0.0,0.0,0.000169,0.0,0.0,0.0,0.000169,-0.12752999999999998,-0.25505999999999995,9.86886,0.006889000000000001,0.0,0.0,0.0,0.006889000000000001,0.0,0.0,0.0,0.006889000000000001
1349442727.8712208,91,1349442727,874096870,auk,-0.013373026796949183,0.0019236511690205573,0.3480395143005253,0.9373825036802865,0.0,0.0,0.0,0.0,0.0,0.0,0.0,0.0,0.0,0.015969762655748114,-0.0049741883681838385,-0.005235987755982988,0.000169,0.0,0.0,0.0,0.000169,0.0,0.0,0.0,0.000169,-0.13734,-0.23543999999999998,9.85905,0.006889000000000001,0.0,0.0,0.0,0.006889000000000001,0.0,0.0,0.0,0.006889000000000001
1349442727.8919673,92,1349442727,894096851,auk,-0.013291565529903841,0.0019517035528407254,0.3482029441167415,0.937322908525893,0.0,0.0,0.0,0.0,0.0,0.0,0.0,0.0,0.0,0.015707963267948963,-0.0028797932657906433,-0.0036651914291880917,0.000169,0.0,0.0,0.0,0.000169,0.0,0.0,0.0,0.000169,-0.09809999999999999,-0.20600999999999997,9.86886,0.006889000000000001,0.0,0.0,0.0,0.006889000000000001,0.0,0.0,0.0,0.006889000000000001
1349442727.9116566,93,1349442727,914094925,auk,-0.013179725967358072,0.001897988165889178,0.3483655995168136,0.937264157821923,0.0,0.0,0.0,0.0,0.0,0.0,0.0,0.0,0.0,0.005235987755982988,-0.009162978572970229,-0.011519173063162573,0.000169,0.0,0.0,0.0,0.000169,0.0,0.0,0.0,0.000169,-0.12752999999999998,-0.22563,9.85905,0.006889000000000001,0.0,0.0,0.0,0.006889000000000001,0.0,0.0,0.0,0.006889000000000001
1349442727.9317865,94,1349442727,934094906,auk,-0.013128673306181185,0.0020078937521145063,0.3485297651793673,0.937203611326757,0.0,0.0,0.0,0.0,0.0,0.0,0.0,0.0,0.0,-0.006021385919380436,-0.00890117918517108,-0.00471238898038469,0.000169,0.0,0.0,0.0,0.000169,0.0,0.0,0.0,0.000169,-0.13734,-0.21581999999999998,9.88848,0.006889000000000001,0.0,0.0,0.0,0.006889000000000001,0.0,0.0,0.0,0.006889000000000001
1349442727.9516513,95,1349442727,954092979,auk,-0.01307765936617633,0.0021178173143179945,0.34869390073381273,0.9371430271129181,0.0,0.0,0.0,0.0,0.0,0.0,0.0,0.0,0.0,-0.002617993877991494,0.010210176124166827,0.00471238898038469,0.000169,0.0,0.0,0.0,0.000169,0.0,0.0,0.0,0.000169,-0.12752999999999998,-0.18639,9.937529999999999,0.006889000000000001,0.0,0.0,0.0,0.006889000000000001,0.0,0.0,0.0,0.006889000000000001
1349442727.9715488,96,1349442727,974092960,auk,-0.013026684153644202,0.0022277588389205656,0.34885800617040313,0.9370824051924823,0.0,0.0,0.0,0.0,0.0,0.0,0.0,0.0,0.0,0.0018325957145940458,-0.0005235987755982988,0.003141592653589793,0.000169,0.0,0.0,0.0,0.000169,0.0,0.0,0.0,0.000169,-0.14715,-0.20600999999999997,9.91791,0.006889000000000001,0.0,0.0,0.0,0.006889000000000001,0.0,0.0,0.0,0.006889000000000001
1349442727.9912133,97,1349442727,994092941,auk,-0.012945302170992844,0.0022559430874632847,0.34902135705029463,0.9370226369705583,0.0,0.0,0.0,0.0,0.0,0.0,0.0,0.0,0.0,-0.0018325957145940458,0.002356194490192345,0.0005235987755982988,0.000169,0.0,0.0,0.0,0.000169,0.0,0.0,0.0,0.000169,-0.12752999999999998,-0.19619999999999999,9.88848,0.006889000000000001,0.0,0.0,0.0,0.006889000000000001,0.0,0.0,0.0,0.006889000000000001
1349442728.0112588,98,1349442728,14091015,auk,-0.012843084610789646,0.0024781679496985293,0.34918591171970637,0.9369621726183883,0.0,0.0,0.0,0.0,0.0,0.0,0.0,0.0,0.0,-0.006544984694978735,-0.010995574287564275,0.0005235987755982988,0.000169,0.0,0.0,0.0,0.000169,0.0,0.0,0.0,0.000169,-0.13734,-0.19619999999999999,9.9081,0.006889000000000001,0.0,0.0,0.0,0.006889000000000001,0.0,0.0,0.0,0.006889000000000001
1349442728.0315046,99,1349442728,34090996,auk,-0.012761100218852555,0.0025097537851591248,0.3491039273277693,0.936993758453849,0.0,0.0,0.0,0.0,0.0,0.0,0.0,0.0,0.0,0.003926990816987241,0.007853981633974482,-0.00890117918517108,0.000169,0.0,0.0,0.0,0.000169,0.0,0.0,0.0,0.000169,-0.12752999999999998,-0.21581999999999998,9.91791,0.006889000000000001,0.0,0.0,0.0,0.006889000000000001,0.0,0.0,0.0,0.006889000000000001
1349442728.0516982,100,1349442728,54090977,auk,-0.012812415603377285,0.002397516036209391,0.34910343759509527,0.9369935345468238,0.0,0.0,0.0,0.0,0.0,0.0,0.0,0.0,0.0,0.00471238898038469,0.012566370614359171,-0.00863937979737193,0.000169,0.0,0.0,0.0,0.000169,0.0,0.0,0.0,0.000169,-0.11771999999999999,-0.25505999999999995,9.89829,0.006889000000000001,0.0,0.0,0.0,0.006889000000000001,0.0,0.0,0.0,0.006889000000000001
1349442728.0714667,101,1349442728,74089050,auk,-0.012894183665726146,0.0023670510050386702,0.34910364548855116,0.9369924128848311,0.0,0.0,0.0,0.0,0.0,0.0,0.0,0.0,0.0,-0.005497787143782138,0.0041887902047863905,-0.0036651914291880917,0.000169,0.0,0.0,0.0,0.000169,0.0,0.0,0.0,0.000169,-0.14715,-0.26487,9.89829,0.006889000000000001,0.0,0.0,0.0,0.006889000000000001,0.0,0.0,0.0,0.006889000000000001
1349442728.0916917,102,1349442728,94089031,auk,-0.013037074741159567,0.0024989933473480216,0.3491870578783069,0.9369590110163493,0.0,0.0,0.0,0.0,0.0,0.0,0.0,0.0,0.0,0.003141592653589793,0.00445058959258554,0.01308996938995747,0.000169,0.0,0.0,0.0,0.000169,0.0,0.0,0.0,0.000169,-0.14715,-0.25505999999999995,9.89829,0.006889000000000001,0.0,0.0,0.0,0.006889000000000001,0.0,0.0,0.0,0.006889000000000001
1349442728.1117,103,1349442728,114086866,auk,-0.013007036850115847,0.0024149533542561557,0.3493498639590326,0.9368989580229461,0.0,0.0,0.0,0.0,0.0,0.0,0.0,0.0,0.0,0.0028797932657906433,-0.010210176124166827,0.008115781021773632,0.000169,0.0,0.0,0.0,0.000169,0.0,0.0,0.0,0.000169,-0.11771999999999999,-0.17658,9.91791,0.006889000000000001,0.0,0.0,0.0,0.006889000000000001,0.0,0.0,0.0,0.006889000000000001
1349442728.1313374,104,1349442728,134086847,auk,-0.012813460497410082,0.0023919253372248557,0.3495122449061326,0.9368411202460842,0.0,0.0,0.0,0.0,0.0,0.0,0.0,0.0,0.0,0.01780235837034216,0.00471238898038469,0.010210176124166827,0.000169,0.0,0.0,0.0,0.000169,0.0,0.0,0.0,0.000169,-0.06867,-0.17658,9.91791,0.006889000000000001,0.0,0.0,0.0,0.006889000000000001,0.0,0.0,0.0,0.006889000000000001
1349442728.1517444,105,1349442728,154086828,auk,-0.012701625418531242,0.0023384497499441314,0.3496748369284672,0.9367821031507508,0.0,0.0,0.0,0.0,0.0,0.0,0.0,0.0,0.0,-0.0057595865315812865,-0.01727875959474386,-0.0015707963267948964,0.000169,0.0,0.0,0.0,0.000169,0.0,0.0,0.0,0.000169,-0.049049999999999996,-0.19619999999999999,9.927719999999999,0.006889000000000001,0.0,0.0,0.0,0.006889000000000001,0.0,0.0,0.0,0.006889000000000001
1349442728.1716716,106,1349442728,174084902,auk,-0.012507420529777019,0.0023188166970585897,0.34959198140857656,0.9368156884124231,0.0,0.0,0.0,0.0,0.0,0.0,0.0,0.0,0.0,-0.01361356816555577,0.003141592653589793,-0.007330382858376183,0.000169,0.0,0.0,0.0,0.000169,0.0,0.0,0.0,0.000169,-0.08829,-0.21581999999999998,9.9081,0.006889000000000001,0.0,0.0,0.0,0.006889000000000001,0.0,0.0,0.0,0.006889000000000001
1349442728.191562,107,1349442728,194084883,auk,-0.012640049659476559,0.002178250655673459,0.34942816271414345,0.9368753617589188,0.0,0.0,0.0,0.0,0.0,0.0,0.0,0.0,0.0,0.0005235987755982988,0.00445058959258554,-0.0020943951023931952,0.000169,0.0,0.0,0.0,0.000169,0.0,0.0,0.0,0.000169,-0.11771999999999999,-0.23543999999999998,9.88848,0.006889000000000001,0.0,0.0,0.0,0.006889000000000001,0.0,0.0,0.0,0.006889000000000001
1349442728.2116904,108,1349442728,214082956,auk,-0.012691506025053744,0.0020648876439569386,0.34950939016576144,0.9368446232432524,0.0,0.0,0.0,0.0,0.0,0.0,0.0,0.0,0.0,0.003141592653589793,-0.003141592653589793,-0.003141592653589793,0.000169,0.0,0.0,0.0,0.000169,0.0,0.0,0.0,0.000169,-0.10790999999999999,-0.21581999999999998,9.87867,0.006889000000000001,0.0,0.0,0.0,0.006889000000000001,0.0,0.0,0.0,0.006889000000000001
1349442728.2318463,109,1349442728,234082937,auk,-0.012579613178394474,0.002011433031405735,0.34967200068543103,0.9367855674625276,0.0,0.0,0.0,0.0,0.0,0.0,0.0,0.0,0.0,0.0007853981633974482,-0.006021385919380436,-0.0036651914291880917,0.000169,0.0,0.0,0.0,0.000169,0.0,0.0,0.0,0.000169,-0.08829,-0.20600999999999997,9.87867,0.006889000000000001,0.0,0.0,0.0,0.006889000000000001,0.0,0.0,0.0,0.006889000000000001
1349442728.2574284,110,1349442728,254082918,auk,-0.012467701722285871,0.0019580173860264576,0.3498346101770096,0.9367264638644409,0.0,0.0,0.0,0.0,0.0,0.0,0.0,0.0,0.0,0.012566370614359171,0.010210176124166827,0.00445058959258554,0.000169,0.0,0.0,0.0,0.000169,0.0,0.0,0.0,0.000169,-0.09809999999999999,-0.20600999999999997,9.88848,0.006889000000000001,0.0,0.0,0.0,0.006889000000000001,0.0,0.0,0.0,0.006889000000000001
1349442728.2714908,111,1349442728,274080992,auk,-0.012519250767275504,0.0018435546472276125,0.3499975457171171,0.9366651416907129,0.0,0.0,0.0,0.0,0.0,0.0,0.0,0.0,0.0,-0.002356194490192345,0.015446163880149815,0.0028797932657906433,0.000169,0.0,0.0,0.0,0.000169,0.0,0.0,0.0,0.000169,-0.10790999999999999,-0.24524999999999997,9.89829,0.006889000000000001,0.0,0.0,0.0,0.006889000000000001,0.0,0.0,0.0,0.006889000000000001
1349442728.2913606,112,1349442728,294080973,auk,-0.01254021387496041,0.0016473358595448882,0.35015972050237093,0.9366046121273572,0.0,0.0,0.0,0.0,0.0,0.0,0.0,0.0,0.0,0.0036651914291880917,0.0005235987755982988,-0.010995574287564275,0.000169,0.0,0.0,0.0,0.000169,0.0,0.0,0.0,0.000169,-0.10790999999999999,-0.23543999999999998,9.9081,0.006889000000000001,0.0,0.0,0.0,0.006889000000000001,0.0,0.0,0.0,0.006889000000000001
1349442728.3114526,113,1349442728,314079046,auk,-0.012509940521200927,0.0015634142588806191,0.3503224505813126,0.9365443063425857,0.0,0.0,0.0,0.0,0.0,0.0,0.0,0.0,0.0,0.003141592653589793,0.007068583470577034,0.0057595865315812865,0.000169,0.0,0.0,0.0,0.000169,0.0,0.0,0.0,0.000169,-0.10790999999999999,-0.19619999999999999,9.88848,0.006889000000000001,0.0,0.0,0.0,0.006889000000000001,0.0,0.0,0.0,0.006889000000000001
1349442728.3314314,114,1349442728,334079027,auk,-0.012397914470598171,0.0015100888614896402,0.35048503716139406,0.9364850506411655,0.0,0.0,0.0,0.0,0.0,0.0,0.0,0.0,0.0,-0.0049741883681838385,0.0005235987755982988,-0.011519173063162573,0.000169,0.0,0.0,0.0,0.000169,0.0,0.0,0.0,0.000169,-0.10790999999999999,-0.21581999999999998,9.86886,0.006889000000000001,0.0,0.0,0.0,0.006889000000000001,0.0,0.0,0.0,0.006889000000000001
1349442728.3515794,115,1349442728,354079008,auk,-0.012428767213764486,0.0015896472926583438,0.3506492074788168,0.9364230518635841,0.0,0.0,0.0,0.0,0.0,0.0,0.0,0.0,0.0,0.007068583470577034,0.0005235987755982988,-0.005497787143782138,0.000169,0.0,0.0,0.0,0.000169,0.0,0.0,0.0,0.000169,-0.13734,-0.20600999999999997,9.9081,0.006889000000000001,0.0,0.0,0.0,0.006889000000000001,0.0,0.0,0.0,0.006889000000000001
1349442728.3717294,116,1349442728,374076843,auk,-0.01237793504911544,0.0016998092205374807,0.35081321715881525,0.9363621009199462,0.0,0.0,0.0,0.0,0.0,0.0,0.0,0.0,0.0,0.0034033920413889425,-0.001308996938995747,0.0015707963267948964,0.000169,0.0,0.0,0.0,0.000169,0.0,0.0,0.0,0.000169,-0.13734,-0.18639,9.88848,0.006889000000000001,0.0,0.0,0.0,0.006889000000000001,0.0,0.0,0.0,0.006889000000000001
1349442728.391966,117,1349442728,394076824,auk,-0.012357098349241535,0.0018960142949656276,0.3506510504239706,0.9364227400521341,0.0,0.0,0.0,0.0,0.0,0.0,0.0,0.0,0.0,0.002356194490192345,-0.0002617993877991494,0.007853981633974482,0.000169,0.0,0.0,0.0,0.000169,0.0,0.0,0.0,0.000169,-0.12752999999999998,-0.17658,9.85905,0.006889000000000001,0.0,0.0,0.0,0.006889000000000001,0.0,0.0,0.0,0.006889000000000001
1349442728.4116828,118,1349442728,414074898,auk,-0.012244468516784741,0.0018470290095219328,0.35048674258329743,0.936485827307562,0.0,0.0,0.0,0.0,0.0,0.0,0.0,0.0,0.0,0.010471975511965976,0.019111355309337906,0.0049741883681838385,0.000169,0.0,0.0,0.0,0.000169,0.0,0.0,0.0,0.000169,-0.08829,-0.18639,9.88848,0.006889000000000001,0.0,0.0,0.0,0.006889000000000001,0.0,0.0,0.0,0.006889000000000001
1349442728.4317777,119,1349442728,434074879,auk,-0.012050126480453284,0.0018285757103109297,0.35032227409247324,0.9365499212734764,0.0,0.0,0.0,0.0,0.0,0.0,0.0,0.0,0.0,0.0005235987755982988,0.0036651914291880917,-0.011257373675363424,0.000169,0.0,0.0,0.0,0.000169,0.0,0.0,0.0,0.000169,-0.06867,-0.20600999999999997,9.89829,0.006889000000000001,0.0,0.0,0.0,0.006889000000000001,0.0,0.0,0.0,0.006889000000000001
1349442728.4574223,120,1349442728,454074860,auk,-0.012182729735293413,0.0016878260784284824,0.35015841959949884,0.9366097445163099,0.0,0.0,0.0,0.0,0.0,0.0,0.0,0.0,0.0,-0.014922565104551515,-0.00863937979737193,0.008115781021773632,0.000169,0.0,0.0,0.0,0.000169,0.0,0.0,0.0,0.000169,-0.09809999999999999,-0.22563,9.89829,0.006889000000000001,0.0,0.0,0.0,0.006889000000000001,0.0,0.0,0.0,0.006889000000000001
1349442728.4714973,121,1349442728,474072933,auk,-0.01220337077625935,0.0014937921139899523,0.3501571342084482,0.9366102859192525,0.0,0.0,0.0,0.0,0.0,0.0,0.0,0.0,0.0,-0.0018325957145940458,-0.006283185307179586,0.00445058959258554,0.000169,0.0,0.0,0.0,0.000169,0.0,0.0,0.0,0.000169,-0.10790999999999999,-0.24524999999999997,9.88848,0.006889000000000001,0.0,0.0,0.0,0.006889000000000001,0.0,0.0,0.0,0.006889000000000001
1349442728.4919147,122,1349442728,494072914,auk,-0.012254799490135726,0.0013793578989296064,0.3503200003773955,0.9365488853214363,0.0,0.0,0.0,0.0,0.0,0.0,0.0,0.0,0.0,-0.01282817000215832,-0.0018325957145940458,-0.007330382858376183,0.000169,0.0,0.0,0.0,0.000169,0.0,0.0,0.0,0.000169,-0.07848,-0.24524999999999997,9.9081,0.006889000000000001,0.0,0.0,0.0,0.006889000000000001,0.0,0.0,0.0,0.006889000000000001
1349442728.5118122,123,1349442728,514072895,auk,-0.012387912480660266,0.0012343204847533274,0.3504829452268804,0.93648636999286,0.0,0.0,0.0,0.0,0.0,0.0,0.0,0.0,0.0,-0.005235987755982988,0.0002617993877991494,0.01754055898254301,0.000169,0.0,0.0,0.0,0.000169,0.0,0.0,0.0,0.000169,-0.08829,-0.23543999999999998,9.91791,0.006889000000000001,0.0,0.0,0.0,0.006889000000000001,0.0,0.0,0.0,0.006889000000000001
1349442728.5318553,124,1349442728,534070969,auk,-0.012500547643074154,0.001282190020436477,0.35072896125365627,0.9363926996913774,0.0,0.0,0.0,0.0,0.0,0.0,0.0,0.0,0.0,0.00471238898038469,-0.007592182246175333,0.023038346126325146,0.000169,0.0,0.0,0.0,0.000169,0.0,0.0,0.0,0.000169,-0.13734,-0.22563,9.88848,0.006889000000000001,0.0,0.0,0.0,0.006889000000000001,0.0,0.0,0.0,0.006889000000000001
1349442728.5518308,125,1349442728,554070950,auk,-0.012613092268588094,0.001331101216418367,0.3508932523389598,0.9363295699356946,0.0,0.0,0.0,0.0,0.0,0.0,0.0,0.0,0.0,-0.00445058959258554,0.0028797932657906433,0.0034033920413889425,0.000169,0.0,0.0,0.0,0.000169,0.0,0.0,0.0,0.000169,-0.13734,-0.22563,9.9081,0.006889000000000001,0.0,0.0,0.0,0.006889000000000001,0.0,0.0,0.0,0.006889000000000001
1349442728.5714912,126,1349442728,574069023,auk,-0.01253161952580184,0.0013595352646974604,0.351056550027403,0.9362694104042822,0.0,0.0,0.0,0.0,0.0,0.0,0.0,0.0,0.0,-0.015969762655748114,0.006283185307179586,-0.009686577348568528,0.000169,0.0,0.0,0.0,0.000169,0.0,0.0,0.0,0.000169,-0.09809999999999999,-0.19619999999999999,9.9081,0.006889000000000001,0.0,0.0,0.0,0.006889000000000001,0.0,0.0,0.0,0.006889000000000001
1349442728.5913293,127,1349442728,594069004,auk,-0.012450156999640869,0.0013879977816063085,0.3512198347303386,0.9362092152637871,0.0,0.0,0.0,0.0,0.0,0.0,0.0,0.0,0.0,-0.0002617993877991494,-0.0028797932657906433,-0.00445058959258554,0.000169,0.0,0.0,0.0,0.000169,0.0,0.0,0.0,0.000169,-0.13734,-0.21581999999999998,9.89829,0.006889000000000001,0.0,0.0,0.0,0.006889000000000001,0.0,0.0,0.0,0.006889000000000001
1349442728.6111765,128,1349442728,614068985,auk,-0.012593400234034095,0.0015185570728204695,0.3513848345893808,0.9361451801272895,0.0,0.0,0.0,0.0,0.0,0.0,0.0,0.0,0.0,0.00863937979737193,0.002356194490192345,0.0002617993877991494,0.000169,0.0,0.0,0.0,0.000169,0.0,0.0,0.0,0.000169,-0.17658,-0.26487,9.9081,0.006889000000000001,0.0,0.0,0.0,0.006889000000000001,0.0,0.0,0.0,0.006889000000000001
1349442728.631605,129,1349442728,634066820,auk,-0.012706021252332344,0.00156737340417493,0.35154909449205113,0.9360819058855727,0.0,0.0,0.0,0.0,0.0,0.0,0.0,0.0,0.0,0.017016960206944712,-0.006544984694978735,0.0049741883681838385,0.000169,0.0,0.0,0.0,0.000169,0.0,0.0,0.0,0.000169,-0.15696,-0.28448999999999997,9.86886,0.006889000000000001,0.0,0.0,0.0,0.006889000000000001,0.0,0.0,0.0,0.006889000000000001
1349442728.656871,130,1349442728,654067039,auk,-0.012818659352045098,0.0016161503142815246,0.3517133519118539,0.9360185832116297,0.0,0.0,0.0,0.0,0.0,0.0,0.0,0.0,0.0,-0.0015707963267948964,0.00890117918517108,0.00445058959258554,0.000169,0.0,0.0,0.0,0.000169,0.0,0.0,0.0,0.000169,-0.10790999999999999,-0.23543999999999998,9.89829,0.006889000000000001,0.0,0.0,0.0,0.006889000000000001,0.0,0.0,0.0,0.006889000000000001
1349442728.6716406,131,1349442728,674064875,auk,-0.01270656759475638,0.0015629380706615207,0.35187582729434097,0.9359591350750686,0.0,0.0,0.0,0.0,0.0,0.0,0.0,0.0,0.0,0.009948376736367677,0.019373154697137056,-0.0010471975511965976,0.000169,0.0,0.0,0.0,0.000169,0.0,0.0,0.0,0.000169,-0.09809999999999999,-0.20600999999999997,9.91791,0.006889000000000001,0.0,0.0,0.0,0.006889000000000001,0.0,0.0,0.0,0.006889000000000001
1349442728.6918526,132,1349442728,694064856,auk,-0.012757802426900066,0.001448322554315453,0.35203855967456255,0.9358974267200836,0.0,0.0,0.0,0.0,0.0,0.0,0.0,0.0,0.0,0.002356194490192345,0.002617993877991494,0.0034033920413889425,0.000169,0.0,0.0,0.0,0.000169,0.0,0.0,0.0,0.000169,-0.12752999999999998,-0.23543999999999998,9.87867,0.006889000000000001,0.0,0.0,0.0,0.006889000000000001,0.0,0.0,0.0,0.006889000000000001
1349442728.711413,133,1349442728,714064837,auk,-0.012870446432812772,0.0014970315876902864,0.3522027838672846,0.9358340181576968,0.0,0.0,0.0,0.0,0.0,0.0,0.0,0.0,0.0,0.01727875959474386,-0.015707963267948963,-0.00445058959258554,0.000169,0.0,0.0,0.0,0.000169,0.0,0.0,0.0,0.000169,-0.14715,-0.24524999999999997,9.86886,0.006889000000000001,0.0,0.0,0.0,0.006889000000000001,0.0,0.0,0.0,0.006889000000000001
1349442728.7317965,134,1349442728,734062910,auk,-0.012932184479967851,0.0016581167488126441,0.3523676235794954,0.9357708411285119,0.0,0.0,0.0,0.0,0.0,0.0,0.0,0.0,0.0,0.0,-0.010210176124166827,0.0018325957145940458,0.000169,0.0,0.0,0.0,0.000169,0.0,0.0,0.0,0.000169,-0.11771999999999999,-0.20600999999999997,9.9081,0.006889000000000001,0.0,0.0,0.0,0.006889000000000001,0.0,0.0,0.0,0.006889000000000001
1349442728.753025,135,1349442728,754062891,auk,-0.012769161396821365,0.0017173878624124495,0.3525306466626419,0.9357115700149121,0.0,0.0,0.0,0.0,0.0,0.0,0.0,0.0,0.0,-0.0020943951023931952,0.0057595865315812865,-0.007068583470577034,0.000169,0.0,0.0,0.0,0.000169,0.0,0.0,0.0,0.000169,-0.12752999999999998,-0.21581999999999998,9.927719999999999,0.006889000000000001,0.0,0.0,0.0,0.006889000000000001,0.0,0.0,0.0,0.006889000000000001
1349442728.7714818,136,1349442728,774060965,auk,-0.012881878675305665,0.0017660358991901754,0.35269484626724795,0.9356480554864205,0.0,0.0,0.0,0.0,0.0,0.0,0.0,0.0,0.0,-0.00942477796076938,-0.009162978572970229,-0.011780972450961723,0.000169,0.0,0.0,0.0,0.000169,0.0,0.0,0.0,0.000169,-0.15696,-0.23543999999999998,9.9081,0.006889000000000001,0.0,0.0,0.0,0.006889000000000001,0.0,0.0,0.0,0.006889000000000001
1349442728.7916868,137,1349442728,794060946,auk,-0.012912967776271812,0.001845437238053341,0.3528588836148005,0.9355856229542682,0.0,0.0,0.0,0.0,0.0,0.0,0.0,0.0,0.0,0.009162978572970229,-0.006283185307179586,-0.0010471975511965976,0.000169,0.0,0.0,0.0,0.000169,0.0,0.0,0.0,0.000169,-0.13734,-0.21581999999999998,9.88848,0.006889000000000001,0.0,0.0,0.0,0.006889000000000001,0.0,0.0,0.0,0.006889000000000001
1349442728.8114526,138,1349442728,814060926,auk,-0.012944084886660184,0.0019248277620457915,0.35302290722454754,0.935523154539353,0.0,0.0,0.0,0.0,0.0,0.0,0.0,0.0,0.0,-0.018325957145940458,-0.0010471975511965976,-0.002617993877991494,0.000169,0.0,0.0,0.0,0.000169,0.0,0.0,0.0,0.000169,-0.10790999999999999,-0.22563,9.85905,0.006889000000000001,0.0,0.0,0.0,0.006889000000000001,0.0,0.0,0.0,0.006889000000000001
1349442728.831635,139,1349442728,834059000,auk,-0.012964436123819891,0.0017284695352580565,0.3531848542567104,0.9354621288500797,0.0,0.0,0.0,0.0,0.0,0.0,0.0,0.0,0.0,0.009162978572970229,-0.013875367553354919,0.010471975511965976,0.000169,0.0,0.0,0.0,0.000169,0.0,0.0,0.0,0.000169,-0.08829,-0.22563,9.86886,0.006889000000000001,0.0,0.0,0.0,0.006889000000000001,0.0,0.0,0.0,0.006889000000000001
1349442728.8516047,140,1349442728,854058981,auk,-0.012933338912244983,0.0016490879775270199,0.35302082894545217,0.9355246140984691,0.0,0.0,0.0,0.0,0.0,0.0,0.0,0.0,0.0,0.007592182246175333,-0.007853981633974482,-0.003141592653589793,0.000169,0.0,0.0,0.0,0.000169,0.0,0.0,0.0,0.000169,-0.08829,-0.21581999999999998,9.89829,0.006889000000000001,0.0,0.0,0.0,0.006889000000000001,0.0,0.0,0.0,0.006889000000000001
1349442728.8712049,141,1349442728,874057055,auk,-0.012984049276863146,0.001537769971394925,0.3529385694636481,0.935555137826117,0.0,0.0,0.0,0.0,0.0,0.0,0.0,0.0,0.0,-0.014398966328953218,-0.0007853981633974482,0.0049741883681838385,0.000169,0.0,0.0,0.0,0.000169,0.0,0.0,0.0,0.000169,-0.07848,-0.23543999999999998,9.88848,0.006889000000000001,0.0,0.0,0.0,0.006889000000000001,0.0,0.0,0.0,0.006889000000000001
1349442728.891276,142,1349442728,894057035,auk,-0.013035152118564057,0.001423048392874546,0.3531012113722212,0.9354932358226794,0.0,0.0,0.0,0.0,0.0,0.0,0.0,0.0,0.0,-0.0007853981633974482,0.0002617993877991494,0.0036651914291880917,0.000169,0.0,0.0,0.0,0.000169,0.0,0.0,0.0,0.000169,-0.07848,-0.27468,9.829619999999998,0.006889000000000001,0.0,0.0,0.0,0.006889000000000001,0.0,0.0,0.0,0.006889000000000001
1349442728.9114861,143,1349442728,914057016,auk,-0.013086215257766353,0.0013083091394206067,0.3532638227953519,0.9354312966762643,0.0,0.0,0.0,0.0,0.0,0.0,0.0,0.0,0.0,-0.0020943951023931952,0.007592182246175333,0.0036651914291880917,0.000169,0.0,0.0,0.0,0.000169,0.0,0.0,0.0,0.000169,-0.06867,-0.25505999999999995,9.829619999999998,0.006889000000000001,0.0,0.0,0.0,0.006889000000000001,0.0,0.0,0.0,0.006889000000000001
1349442728.9314427,144,1349442728,934054852,auk,-0.013188033921031525,0.0010810794255040326,0.35342570684224744,0.9353690056718958,0.0,0.0,0.0,0.0,0.0,0.0,0.0,0.0,0.0,-0.00445058959258554,0.01282817000215832,0.010733774899765125,0.000169,0.0,0.0,0.0,0.000169,0.0,0.0,0.0,0.000169,-0.08829,-0.23543999999999998,9.85905,0.006889000000000001,0.0,0.0,0.0,0.006889000000000001,0.0,0.0,0.0,0.006889000000000001
1349442728.9517841,145,1349442728,954054832,auk,-0.013219168953764855,0.0011592492177117924,0.3536713732346786,0.9352756115005456,0.0,0.0,0.0,0.0,0.0,0.0,0.0,0.0,0.0,-0.009948376736367677,-0.0007853981633974482,0.015446163880149815,0.000169,0.0,0.0,0.0,0.000169,0.0,0.0,0.0,0.000169,-0.10790999999999999,-0.23543999999999998,9.9081,0.006889000000000001,0.0,0.0,0.0,0.006889000000000001,0.0,0.0,0.0,0.006889000000000001
1349442728.971595,146,1349442728,974052906,auk,-0.013168624899984972,0.0012694370324615144,0.3538352914369443,0.9352141799510939,0.0,0.0,0.0,0.0,0.0,0.0,0.0,0.0,0.0,-0.0007853981633974482,-0.006021385919380436,0.0002617993877991494,0.000169,0.0,0.0,0.0,0.000169,0.0,0.0,0.0,0.000169,-0.10790999999999999,-0.21581999999999998,9.91791,0.006889000000000001,0.0,0.0,0.0,0.006889000000000001,0.0,0.0,0.0,0.006889000000000001
1349442728.9920216,147,1349442728,994052887,auk,-0.01321957280271282,0.0011546347867275883,0.35399782445784234,0.9351520999241447,0.0,0.0,0.0,0.0,0.0,0.0,0.0,0.0,0.0,-0.0041887902047863905,0.009948376736367677,-0.011780972450961723,0.000169,0.0,0.0,0.0,0.000169,0.0,0.0,0.0,0.000169,-0.09809999999999999,-0.24524999999999997,9.9081,0.006889000000000001,0.0,0.0,0.0,0.006889000000000001,0.0,0.0,0.0,0.006889000000000001
1349442729.0116918,148,1349442729,14052868,auk,-0.013239585756725566,0.0009582086997844668,0.35415951809512913,0.9350908142783265,0.0,0.0,0.0,0.0,0.0,0.0,0.0,0.0,0.0,-0.012042771838760872,0.006544984694978735,0.014137166941154067,0.000169,0.0,0.0,0.0,0.000169,0.0,0.0,0.0,0.000169,-0.10790999999999999,-0.22563,9.89829,0.006889000000000001,0.0,0.0,0.0,0.006889000000000001,0.0,0.0,0.0,0.006889000000000001
1349442729.031782,149,1349442729,34050941,auk,-0.013107468855982584,0.0010993398741641052,0.354323339070694,0.9350304578471359,0.0,0.0,0.0,0.0,0.0,0.0,0.0,0.0,0.0,0.007330382858376183,-0.01282817000215832,-0.010471975511965976,0.000169,0.0,0.0,0.0,0.000169,0.0,0.0,0.0,0.000169,-0.13734,-0.18639,9.88848,0.006889000000000001,0.0,0.0,0.0,0.006889000000000001,0.0,0.0,0.0,0.006889000000000001
1349442729.057355,150,1349442729,54049015,auk,-0.013056887290735068,0.0012107220182455197,0.35440562191261776,0.9349998433172073,0.0,0.0,0.0,0.0,0.0,0.0,0.0,0.0,0.0,-0.011257373675363424,-0.010210176124166827,-0.02617993877991494,0.000169,0.0,0.0,0.0,0.000169,0.0,0.0,0.0,0.000169,-0.13734,-0.18639,9.87867,0.006889000000000001,0.0,0.0,0.0,0.006889000000000001,0.0,0.0,0.0,0.006889000000000001
1349442729.0716338,151,1349442729,74048996,auk,-0.013006440538905406,0.001320978095228082,0.354569472575286,0.9349382742401038,0.0,0.0,0.0,0.0,0.0,0.0,0.0,0.0,0.0,-0.0028797932657906433,-0.013875367553354919,0.012304571226560023,0.000169,0.0,0.0,0.0,0.000169,0.0,0.0,0.0,0.000169,-0.08829,-0.17658,9.9081,0.006889000000000001,0.0,0.0,0.0,0.006889000000000001,0.0,0.0,0.0,0.006889000000000001
1349442729.0915847,152,1349442729,94048977,auk,-0.012863196936093542,0.001186488953334135,0.35473099086542503,0.9348791657365034,0.0,0.0,0.0,0.0,0.0,0.0,0.0,0.0,0.0,-0.00471238898038469,0.0049741883681838385,-0.006283185307179586,0.000169,0.0,0.0,0.0,0.000169,0.0,0.0,0.0,0.000169,-0.08829,-0.20600999999999997,9.88848,0.006889000000000001,0.0,0.0,0.0,0.006889000000000001,0.0,0.0,0.0,0.006889000000000001
1349442729.111525,153,1349442729,114047050,auk,-0.012832347883420225,0.0011037814462267212,0.35481180043623206,0.9348490245946226,0.0,0.0,0.0,0.0,0.0,0.0,0.0,0.0,0.0,0.0020943951023931952,0.00471238898038469,-0.006806784082777885,0.000169,0.0,0.0,0.0,0.000169,0.0,0.0,0.0,0.000169,-0.09809999999999999,-0.23543999999999998,9.85905,0.006889000000000001,0.0,0.0,0.0,0.006889000000000001,0.0,0.0,0.0,0.006889000000000001
1349442729.1315804,154,1349442729,134047031,auk,-0.012801395241308676,0.0010221964609242575,0.3548110250580598,0.9348498360119232,0.0,0.0,0.0,0.0,0.0,0.0,0.0,0.0,0.0,0.01282817000215832,0.007068583470577034,0.010995574287564275,0.000169,0.0,0.0,0.0,0.000169,0.0,0.0,0.0,0.000169,-0.08829,-0.21581999999999998,9.85905,0.006889000000000001,0.0,0.0,0.0,0.006889000000000001,0.0,0.0,0.0,0.006889000000000001
1349442729.1517406,155,1349442729,154044867,auk,-0.01263842199326459,0.001081916846866658,0.3549739983061039,0.9347901156259809,0.0,0.0,0.0,0.0,0.0,0.0,0.0,0.0,0.0,0.009686577348568528,-0.007592182246175333,-0.009686577348568528,0.000169,0.0,0.0,0.0,0.000169,0.0,0.0,0.0,0.000169,-0.10790999999999999,-0.18639,9.86886,0.006889000000000001,0.0,0.0,0.0,0.006889000000000001,0.0,0.0,0.0,0.006889000000000001
1349442729.1712704,156,1349442729,174044847,auk,-0.012588021494197785,0.0011922769437769445,0.3551378027160092,0.9347284425289497,0.0,0.0,0.0,0.0,0.0,0.0,0.0,0.0,0.0,-0.003141592653589793,-0.007853981633974482,-0.0041887902047863905,0.000169,0.0,0.0,0.0,0.000169,0.0,0.0,0.0,0.000169,-0.12752999999999998,-0.21581999999999998,9.86886,0.006889000000000001,0.0,0.0,0.0,0.006889000000000001,0.0,0.0,0.0,0.006889000000000001
1349442729.191241,157,1349442729,194044828,auk,-0.012700789780784193,0.0012406429334278464,0.35530179870763134,0.9346645294324473,0.0,0.0,0.0,0.0,0.0,0.0,0.0,0.0,0.0,-0.002617993877991494,0.0034033920413889425,-0.010733774899765125,0.000169,0.0,0.0,0.0,0.000169,0.0,0.0,0.0,0.000169,-0.10790999999999999,-0.24524999999999997,9.86886,0.006889000000000001,0.0,0.0,0.0,0.006889000000000001,0.0,0.0,0.0,0.006889000000000001
1349442729.2113113,158,1349442729,214042902,auk,-0.012701006120379303,0.0012384262085502439,0.3554649230296494,0.9346025033347503,0.0,0.0,0.0,0.0,0.0,0.0,0.0,0.0,0.0,0.01282817000215832,-0.005497787143782138,-0.0015707963267948964,0.000169,0.0,0.0,0.0,0.000169,0.0,0.0,0.0,0.000169,-0.10790999999999999,-0.21581999999999998,9.84924,0.006889000000000001,0.0,0.0,0.0,0.006889000000000001,0.0,0.0,0.0,0.006889000000000001
1349442729.2316685,159,1349442729,234042883,auk,-0.012569137719717736,0.0013798364175556911,0.355628556131939,0.9345418358168649,0.0,0.0,0.0,0.0,0.0,0.0,0.0,0.0,0.0,-0.003926990816987241,0.002617993877991494,0.009162978572970229,0.000169,0.0,0.0,0.0,0.000169,0.0,0.0,0.0,0.000169,-0.11771999999999999,-0.21581999999999998,9.86886,0.006889000000000001,0.0,0.0,0.0,0.006889000000000001,0.0,0.0,0.0,0.006889000000000001
1349442729.2518427,160,1349442729,254042864,auk,-0.012763513559498129,0.0013970979212866554,0.35579264622579815,0.9344767165267731,0.0,0.0,0.0,0.0,0.0,0.0,0.0,0.0,0.0,0.0036651914291880917,-0.00445058959258554,0.00942477796076938,0.000169,0.0,0.0,0.0,0.000169,0.0,0.0,0.0,0.000169,-0.12752999999999998,-0.23543999999999998,9.89829,0.006889000000000001,0.0,0.0,0.0,0.006889000000000001,0.0,0.0,0.0,0.006889000000000001
1349442729.2714667,161,1349442729,274040937,auk,-0.012876352187891236,0.0014453543814006578,0.3559566145577467,0.934412649238886,0.0,0.0,0.0,0.0,0.0,0.0,0.0,0.0,0.0,-0.006021385919380436,0.019896753472735354,-0.0005235987755982988,0.000169,0.0,0.0,0.0,0.000169,0.0,0.0,0.0,0.000169,-0.11771999999999999,-0.23543999999999998,9.927719999999999,0.006889000000000001,0.0,0.0,0.0,0.006889000000000001,0.0,0.0,0.0,0.006889000000000001
1349442729.2919722,162,1349442729,294040918,auk,-0.012958387916611419,0.0014097680566270863,0.3562828887931319,0.9342872127401991,0.0,0.0,0.0,0.0,0.0,0.0,0.0,0.0,0.0,-0.0002617993877991494,0.019896753472735354,0.01282817000215832,0.000169,0.0,0.0,0.0,0.000169,0.0,0.0,0.0,0.000169,-0.10790999999999999,-0.22563,9.9081,0.006889000000000001,0.0,0.0,0.0,0.006889000000000001,0.0,0.0,0.0,0.006889000000000001
1349442729.3116338,163,1349442729,314038992,auk,-0.013040160233106612,0.001376400587573546,0.3564460687168776,0.9342238810043342,0.0,0.0,0.0,0.0,0.0,0.0,0.0,0.0,0.0,0.002617993877991494,0.006283185307179586,0.0010471975511965976,0.000169,0.0,0.0,0.0,0.000169,0.0,0.0,0.0,0.000169,-0.10790999999999999,-0.22563,9.9081,0.006889000000000001,0.0,0.0,0.0,0.006889000000000001,0.0,0.0,0.0,0.006889000000000001
1349442729.3317633,164,1349442729,334038973,auk,-0.012958879229016847,0.0014052446401330533,0.35660899484094627,0.934162789633134,0.0,0.0,0.0,0.0,0.0,0.0,0.0,0.0,0.0,0.0010471975511965976,-0.01335176877775662,-0.0005235987755982988,0.000169,0.0,0.0,0.0,0.000169,0.0,0.0,0.0,0.000169,-0.11771999999999999,-0.19619999999999999,9.88848,0.006889000000000001,0.0,0.0,0.0,0.006889000000000001,0.0,0.0,0.0,0.006889000000000001
1349442729.3534226,165,1349442729,354038954,auk,-0.012765210910611646,0.0013815033089925877,0.3569340590933152,0.9340413365040032,0.0,0.0,0.0,0.0,0.0,0.0,0.0,0.0,0.0,-0.0057595865315812865,-0.00471238898038469,-0.010210176124166827,0.000169,0.0,0.0,0.0,0.000169,0.0,0.0,0.0,0.000169,-0.09809999999999999,-0.17658,9.86886,0.006889000000000001,0.0,0.0,0.0,0.006889000000000001,0.0,0.0,0.0,0.006889000000000001
1349442729.371362,166,1349442729,374037027,auk,-0.012684192714463687,0.001408224143778447,0.35725995774406805,0.933917796571331,0.0,0.0,0.0,0.0,0.0,0.0,0.0,0.0,0.0,-0.0036651914291880917,0.00445058959258554,0.012566370614359171,0.000169,0.0,0.0,0.0,0.000169,0.0,0.0,0.0,0.000169,-0.13734,-0.20600999999999997,9.83943,0.006889000000000001,0.0,0.0,0.0,0.006889000000000001,0.0,0.0,0.0,0.006889000000000001
1349442729.3916388,167,1349442729,394037008,auk,-0.012665443991903573,0.0015990929825056366,0.35750578532224464,0.9338236679862245,0.0,0.0,0.0,0.0,0.0,0.0,0.0,0.0,0.0,0.007068583470577034,0.011780972450961723,-0.010995574287564275,0.000169,0.0,0.0,0.0,0.000169,0.0,0.0,0.0,0.000169,-0.15696,-0.19619999999999999,9.84924,0.006889000000000001,0.0,0.0,0.0,0.006889000000000001,0.0,0.0,0.0,0.006889000000000001
1349442729.411221,168,1349442729,414034843,auk,-0.012584236803416846,0.0016280949027689005,0.35766862213650524,0.9337623589704379,0.0,0.0,0.0,0.0,0.0,0.0,0.0,0.0,0.0,-0.005235987755982988,-0.0015707963267948964,-0.0010471975511965976,0.000169,0.0,0.0,0.0,0.000169,0.0,0.0,0.0,0.000169,-0.12752999999999998,-0.20600999999999997,9.85905,0.006889000000000001,0.0,0.0,0.0,0.006889000000000001,0.0,0.0,0.0,0.006889000000000001
1349442729.431613,169,1349442729,434034824,auk,-0.012534255791851766,0.001738610150572372,0.35783215945375285,0.9337001742139458,0.0,0.0,0.0,0.0,0.0,0.0,0.0,0.0,0.0,-0.003141592653589793,-0.0057595865315812865,0.0057595865315812865,0.000169,0.0,0.0,0.0,0.000169,0.0,0.0,0.0,0.000169,-0.11771999999999999,-0.20600999999999997,9.87867,0.006889000000000001,0.0,0.0,0.0,0.006889000000000001,0.0,0.0,0.0,0.006889000000000001
1349442729.4517026,170,1349442729,454035044,auk,-0.012421853682606019,0.001686183886425205,0.3579942560493318,0.9336396344257641,0.0,0.0,0.0,0.0,0.0,0.0,0.0,0.0,0.0,-0.0028797932657906433,0.00890117918517108,0.01335176877775662,0.000169,0.0,0.0,0.0,0.000169,0.0,0.0,0.0,0.000169,-0.10790999999999999,-0.21581999999999998,9.85905,0.006889000000000001,0.0,0.0,0.0,0.006889000000000001,0.0,0.0,0.0,0.006889000000000001
1349442729.471383,171,1349442729,474032879,auk,-0.01247182417486637,0.001575640246941447,0.3578307292513888,0.9337018475739365,0.0,0.0,0.0,0.0,0.0,0.0,0.0,0.0,0.0,0.0057595865315812865,0.0010471975511965976,-0.019373154697137056,0.000169,0.0,0.0,0.0,0.000169,0.0,0.0,0.0,0.000169,-0.10790999999999999,-0.23543999999999998,9.83943,0.006889000000000001,0.0,0.0,0.0,0.006889000000000001,0.0,0.0,0.0,0.006889000000000001
1349442729.4912677,172,1349442729,494032860,auk,-0.012521961393463295,0.001464021464825869,0.35774865689297286,0.9337328074001069,0.0,0.0,0.0,0.0,0.0,0.0,0.0,0.0,0.0,-0.007330382858376183,0.007592182246175333,-0.010471975511965976,0.000169,0.0,0.0,0.0,0.000169,0.0,0.0,0.0,0.000169,-0.10790999999999999,-0.22563,9.86886,0.006889000000000001,0.0,0.0,0.0,0.006889000000000001,0.0,0.0,0.0,0.006889000000000001
1349442729.511501,173,1349442729,514032841,auk,-0.012634917701168546,0.0015120843805436256,0.3579124781059552,0.9336684264082004,0.0,0.0,0.0,0.0,0.0,0.0,0.0,0.0,0.0,0.011257373675363424,0.001308996938995747,-0.0010471975511965976,0.000169,0.0,0.0,0.0,0.000169,0.0,0.0,0.0,0.000169,-0.11771999999999999,-0.23543999999999998,9.86886,0.006889000000000001,0.0,0.0,0.0,0.006889000000000001,0.0,0.0,0.0,0.006889000000000001
1349442729.5316558,174,1349442729,534030914,auk,-0.012829363095431295,0.0015288597017748514,0.3580764312915443,0.9336028809853203,0.0,0.0,0.0,0.0,0.0,0.0,0.0,0.0,0.0,-0.007592182246175333,0.001308996938995747,0.003926990816987241,0.000169,0.0,0.0,0.0,0.000169,0.0,0.0,0.0,0.000169,-0.12752999999999998,-0.23543999999999998,9.84924,0.006889000000000001,0.0,0.0,0.0,0.006889000000000001,0.0,0.0,0.0,0.006889000000000001
1349442729.5530193,175,1349442729,554030895,auk,-0.012942347395962435,0.001576829242130793,0.35824025105786356,0.9335383933055043,0.0,0.0,0.0,0.0,0.0,0.0,0.0,0.0,0.0,0.0018325957145940458,0.007592182246175333,-0.006544984694978735,0.000169,0.0,0.0,0.0,0.000169,0.0,0.0,0.0,0.000169,-0.12752999999999998,-0.23543999999999998,9.83943,0.006889000000000001,0.0,0.0,0.0,0.006889000000000001,0.0,0.0,0.0,0.006889000000000001
1349442729.57163,176,1349442729,574028969,auk,-0.013024083493805705,0.0015432937688227314,0.3584033148297813,0.9334747213569922,0.0,0.0,0.0,0.0,0.0,0.0,0.0,0.0,0.0,0.009686577348568528,-0.0028797932657906433,0.00445058959258554,0.000169,0.0,0.0,0.0,0.000169,0.0,0.0,0.0,0.000169,-0.11771999999999999,-0.25505999999999995,9.85905,0.006889000000000001,0.0,0.0,0.0,0.006889000000000001,0.0,0.0,0.0,0.006889000000000001
1349442729.5915704,177,1349442729,594028950,auk,-0.013137087308260981,0.0015911897427684828,0.35856712466705154,0.9334101468059262,0.0,0.0,0.0,0.0,0.0,0.0,0.0,0.0,0.0,-0.0010471975511965976,0.0049741883681838385,0.015707963267948963,0.000169,0.0,0.0,0.0,0.000169,0.0,0.0,0.0,0.000169,-0.13734,-0.23543999999999998,9.87867,0.006889000000000001,0.0,0.0,0.0,0.006889000000000001,0.0,0.0,0.0,0.006889000000000001
1349442729.6115062,178,1349442729,614028931,auk,-0.013168658070210825,0.0016703513329735182,0.358730787234124,0.9333466765684871,0.0,0.0,0.0,0.0,0.0,0.0,0.0,0.0,0.0,0.009686577348568528,0.003141592653589793,-0.002617993877991494,0.000169,0.0,0.0,0.0,0.000169,0.0,0.0,0.0,0.000169,-0.15696,-0.23543999999999998,9.83943,0.006889000000000001,0.0,0.0,0.0,0.006889000000000001,0.0,0.0,0.0,0.006889000000000001
1349442729.6315565,179,1349442729,634027004,auk,-0.013281701034235966,0.0017181824817060305,0.35889458714160494,0.9332820150346056,0.0,0.0,0.0,0.0,0.0,0.0,0.0,0.0,0.0,-0.0028797932657906433,-0.0010471975511965976,0.009686577348568528,0.000169,0.0,0.0,0.0,0.000169,0.0,0.0,0.0,0.000169,-0.12752999999999998,-0.27468,9.829619999999998,0.006889000000000001,0.0,0.0,0.0,0.006889000000000001,0.0,0.0,0.0,0.006889000000000001
1349442729.6517477,180,1349442729,654026985,auk,-0.01333211798975438,0.0016030872848518734,0.35905685008401217,0.9332190863611887,0.0,0.0,0.0,0.0,0.0,0.0,0.0,0.0,0.0,0.020158552860534504,-0.0028797932657906433,0.010995574287564275,0.000169,0.0,0.0,0.0,0.000169,0.0,0.0,0.0,0.000169,-0.10790999999999999,-0.27468,9.86886,0.006889000000000001,0.0,0.0,0.0,0.006889000000000001,0.0,0.0,0.0,0.006889000000000001
1349442729.6713793,181,1349442729,674024820,auk,-0.013382754620433684,0.001485638946204849,0.3593819433032848,0.9330934109633641,0.0,0.0,0.0,0.0,0.0,0.0,0.0,0.0,0.0,-0.00445058959258554,0.003926990816987241,0.002356194490192345,0.000169,0.0,0.0,0.0,0.000169,0.0,0.0,0.0,0.000169,-0.10790999999999999,-0.24524999999999997,9.84924,0.006889000000000001,0.0,0.0,0.0,0.006889000000000001,0.0,0.0,0.0,0.006889000000000001
1349442729.691597,182,1349442729,694025040,auk,-0.013351893990376928,0.0013995459288436655,0.3597068520815002,0.9329687823092906,0.0,0.0,0.0,0.0,0.0,0.0,0.0,0.0,0.0,0.0010471975511965976,0.0010471975511965976,0.003926990816987241,0.000169,0.0,0.0,0.0,0.000169,0.0,0.0,0.0,0.000169,-0.10790999999999999,-0.22563,9.86886,0.006889000000000001,0.0,0.0,0.0,0.006889000000000001,0.0,0.0,0.0,0.006889000000000001
1349442729.7114797,183,1349442729,714025021,auk,-0.01323956873927127,0.0013448933257269452,0.36003159890720926,0.9328451923389319,0.0,0.0,0.0,0.0,0.0,0.0,0.0,0.0,0.0,-0.006021385919380436,-0.012304571226560023,0.008377580409572781,0.000169,0.0,0.0,0.0,0.000169,0.0,0.0,0.0,0.000169,-0.10790999999999999,-0.18639,9.9081,0.006889000000000001,0.0,0.0,0.0,0.006889000000000001,0.0,0.0,0.0,0.006889000000000001
1349442729.731919,184,1349442729,734022856,auk,-0.013127093970180189,0.0012914647210352454,0.3602749153232242,0.9327529131080835,0.0,0.0,0.0,0.0,0.0,0.0,0.0,0.0,0.0,0.012042771838760872,-0.003141592653589793,0.003141592653589793,0.000169,0.0,0.0,0.0,0.000169,0.0,0.0,0.0,0.000169,-0.09809999999999999,-0.21581999999999998,9.86886,0.006889000000000001,0.0,0.0,0.0,0.006889000000000001,0.0,0.0,0.0,0.006889000000000001
1349442729.7570448,185,1349442729,754022837,auk,-0.01317726896392546,0.0011763225698148312,0.3604370362502073,0.9326897226554128,0.0,0.0,0.0,0.0,0.0,0.0,0.0,0.0,0.0,-0.010471975511965976,-0.011257373675363424,0.011257373675363424,0.000169,0.0,0.0,0.0,0.000169,0.0,0.0,0.0,0.000169,-0.09809999999999999,-0.24524999999999997,9.87867,0.006889000000000001,0.0,0.0,0.0,0.006889000000000001,0.0,0.0,0.0,0.006889000000000001
1349442729.7714138,186,1349442729,774023056,auk,-0.013064531734442771,0.0011252395692301206,0.3605175471079681,0.932660254365825,0.0,0.0,0.0,0.0,0.0,0.0,0.0,0.0,0.0,-0.0007853981633974482,-0.006806784082777885,0.0041887902047863905,0.000169,0.0,0.0,0.0,0.000169,0.0,0.0,0.0,0.000169,-0.11771999999999999,-0.18639,9.88848,0.006889000000000001,0.0,0.0,0.0,0.006889000000000001,0.0,0.0,0.0,0.006889000000000001
1349442729.7914915,187,1349442729,794020891,auk,-0.013014807682282956,0.0012358234555723737,0.3606809912954373,0.9325976142150056,0.0,0.0,0.0,0.0,0.0,0.0,0.0,0.0,0.0,-0.00890117918517108,0.0028797932657906433,-0.00942477796076938,0.000169,0.0,0.0,0.0,0.000169,0.0,0.0,0.0,0.000169,-0.10790999999999999,-0.19619999999999999,9.88848,0.006889000000000001,0.0,0.0,0.0,0.006889000000000001,0.0,0.0,0.0,0.006889000000000001
1349442729.8115175,188,1349442729,814020872,auk,-0.013046501555454526,0.0013149352250550082,0.3608445210230497,0.9325338017413435,0.0,0.0,0.0,0.0,0.0,0.0,0.0,0.0,0.0,0.0005235987755982988,0.0049741883681838385,-0.011780972450961723,0.000169,0.0,0.0,0.0,0.000169,0.0,0.0,0.0,0.000169,-0.11771999999999999,-0.23543999999999998,9.88848,0.006889000000000001,0.0,0.0,0.0,0.006889000000000001,0.0,0.0,0.0,0.006889000000000001
1349442729.8318567,189,1349442729,834018946,auk,-0.01301523827313224,0.0012312803554625695,0.36100650729416983,0.932471655983518,0.0,0.0,0.0,0.0,0.0,0.0,0.0,0.0,0.0,-0.0007853981633974482,0.008115781021773632,0.006806784082777885,0.000169,0.0,0.0,0.0,0.000169,0.0,0.0,0.0,0.000169,-0.07848,-0.21581999999999998,9.86886,0.006889000000000001,0.0,0.0,0.0,0.006889000000000001,0.0,0.0,0.0,0.006889000000000001
1349442729.8516388,190,1349442729,854018927,auk,-0.01287107090674548,0.0010977819303669943,0.3611676142522253,0.9324114353781289,0.0,0.0,0.0,0.0,0.0,0.0,0.0,0.0,0.0,-0.00890117918517108,0.0036651914291880917,0.0036651914291880917,0.000169,0.0,0.0,0.0,0.000169,0.0,0.0,0.0,0.000169,-0.06867,-0.19619999999999999,9.87867,0.006889000000000001,0.0,0.0,0.0,0.006889000000000001,0.0,0.0,0.0,0.006889000000000001
1349442729.8714747,191,1349442729,874018908,auk,-0.012677015124175774,0.0010772324795387707,0.361329395793755,0.9323514362047428,0.0,0.0,0.0,0.0,0.0,0.0,0.0,0.0,0.0,-0.015707963267948963,-0.020682151636132802,-0.0036651914291880917,0.000169,0.0,0.0,0.0,0.000169,0.0,0.0,0.0,0.000169,-0.08829,-0.21581999999999998,9.85905,0.006889000000000001,0.0,0.0,0.0,0.006889000000000001,0.0,0.0,0.0,0.006889000000000001
1349442729.8916533,192,1349442729,894016981,auk,-0.012727024676658349,0.000962112291550834,0.36149144629790214,0.9322880624765444,0.0,0.0,0.0,0.0,0.0,0.0,0.0,0.0,0.0,-0.00863937979737193,-0.00890117918517108,-0.014137166941154067,0.000169,0.0,0.0,0.0,0.000169,0.0,0.0,0.0,0.000169,-0.10790999999999999,-0.22563,9.86886,0.006889000000000001,0.0,0.0,0.0,0.006889000000000001,0.0,0.0,0.0,0.006889000000000001
1349442729.9115617,193,1349442729,914016962,auk,-0.012840094183113698,0.0010096866102527417,0.36165500755252716,0.9322230248317723,0.0,0.0,0.0,0.0,0.0,0.0,0.0,0.0,0.0,0.010210176124166827,0.0005235987755982988,0.00942477796076938,0.000169,0.0,0.0,0.0,0.000169,0.0,0.0,0.0,0.000169,-0.12752999999999998,-0.24524999999999997,9.89829,0.006889000000000001,0.0,0.0,0.0,0.006889000000000001,0.0,0.0,0.0,0.006889000000000001
1349442729.9314947,194,1349442729,934015036,auk,-0.012790487893302052,0.0011203705749341895,0.3618183757731435,0.9321601853448314,0.0,0.0,0.0,0.0,0.0,0.0,0.0,0.0,0.0,-0.003141592653589793,-0.00863937979737193,-0.012304571226560023,0.000169,0.0,0.0,0.0,0.000169,0.0,0.0,0.0,0.000169,-0.10790999999999999,-0.21581999999999998,9.89829,0.006889000000000001,0.0,0.0,0.0,0.006889000000000001,0.0,0.0,0.0,0.006889000000000001
1349442729.9514375,195,1349442729,954015017,auk,-0.01275910501503543,0.0010367932549717662,0.36198030363659944,0.9320978436184245,0.0,0.0,0.0,0.0,0.0,0.0,0.0,0.0,0.0,0.009948376736367677,0.013875367553354919,-0.0005235987755982988,0.000169,0.0,0.0,0.0,0.000169,0.0,0.0,0.0,0.000169,-0.08829,-0.22563,9.89829,0.006889000000000001,0.0,0.0,0.0,0.006889000000000001,0.0,0.0,0.0,0.006889000000000001
1349442729.971141,196,1349442729,974014997,auk,-0.012727693256195636,0.000953226918428053,0.3621422180024524,0.9320354666658789,0.0,0.0,0.0,0.0,0.0,0.0,0.0,0.0,0.0,-0.015707963267948963,0.00445058959258554,-0.0041887902047863905,0.000169,0.0,0.0,0.0,0.000169,0.0,0.0,0.0,0.000169,-0.09809999999999999,-0.21581999999999998,9.89829,0.006889000000000001,0.0,0.0,0.0,0.006889000000000001,0.0,0.0,0.0,0.006889000000000001
1349442729.9916973,197,1349442729,994012833,auk,-0.012678136248233524,0.0010639565521118437,0.3623055536351614,0.9319725417966163,0.0,0.0,0.0,0.0,0.0,0.0,0.0,0.0,0.0,0.006806784082777885,0.005497787143782138,0.01754055898254301,0.000169,0.0,0.0,0.0,0.000169,0.0,0.0,0.0,0.000169,-0.11771999999999999,-0.20600999999999997,9.84924,0.006889000000000001,0.0,0.0,0.0,0.006889000000000001,0.0,0.0,0.0,0.006889000000000001
1349442730.01168,198,1349442730,14013052,auk,-0.012646700769621278,0.0009804153135424916,0.36246745350845117,0.9319101055855953,0.0,0.0,0.0,0.0,0.0,0.0,0.0,0.0,0.0,-0.007068583470577034,-0.0005235987755982988,-0.00890117918517108,0.000169,0.0,0.0,0.0,0.000169,0.0,0.0,0.0,0.000169,-0.07848,-0.23543999999999998,9.84924,0.006889000000000001,0.0,0.0,0.0,0.006889000000000001,0.0,0.0,0.0,0.006889000000000001
1349442730.0316498,199,1349442730,34013033,auk,-0.012696555419041659,0.0008652396923634785,0.3626294167494848,0.9318465297186519,0.0,0.0,0.0,0.0,0.0,0.0,0.0,0.0,0.0,0.007592182246175333,-0.00890117918517108,0.00863937979737193,0.000169,0.0,0.0,0.0,0.000169,0.0,0.0,0.0,0.000169,-0.08829,-0.23543999999999998,9.86886,0.006889000000000001,0.0,0.0,0.0,0.006889000000000001,0.0,0.0,0.0,0.006889000000000001
1349442730.052456,200,1349442730,54010868,auk,-0.012778019615961098,0.0008313641302066218,0.3627921230577827,0.9317821132086642,0.0,0.0,0.0,0.0,0.0,0.0,0.0,0.0,0.0,-0.006544984694978735,-0.016755160819145562,0.022252947962927698,0.000169,0.0,0.0,0.0,0.000169,0.0,0.0,0.0,0.000169,-0.11771999999999999,-0.22563,9.89829,0.006889000000000001,0.0,0.0,0.0,0.006889000000000001,0.0,0.0,0.0,0.006889000000000001
1349442730.071324,201,1349442730,74010849,auk,-0.01289113571950355,0.0008787718614923007,0.3629555932903787,0.9317168473732275,0.0,0.0,0.0,0.0,0.0,0.0,0.0,0.0,0.0,-0.012304571226560023,-0.0010471975511965976,-0.008115781021773632,0.000169,0.0,0.0,0.0,0.000169,0.0,0.0,0.0,0.000169,-0.11771999999999999,-0.22563,9.9081,0.006889000000000001,0.0,0.0,0.0,0.006889000000000001,0.0,0.0,0.0,0.006889000000000001
1349442730.0913827,202,1349442730,94008923,auk,-0.012922966435152302,0.0009578280950705608,0.3631189782485381,0.9316526644300407,0.0,0.0,0.0,0.0,0.0,0.0,0.0,0.0,0.0,-0.0041887902047863905,0.0007853981633974482,-0.00471238898038469,0.000169,0.0,0.0,0.0,0.000169,0.0,0.0,0.0,0.000169,-0.13734,-0.22563,9.87867,0.006889000000000001,0.0,0.0,0.0,0.006889000000000001,0.0,0.0,0.0,0.006889000000000001
1349442730.1112397,203,1349442730,114008904,auk,-0.012792231986933383,0.0011002779495941604,0.36328216259068824,0.9315906925966246,0.0,0.0,0.0,0.0,0.0,0.0,0.0,0.0,0.0,-0.0028797932657906433,-0.0018325957145940458,-0.00445058959258554,0.000169,0.0,0.0,0.0,0.000169,0.0,0.0,0.0,0.000169,-0.13734,-0.18639,9.88848,0.006889000000000001,0.0,0.0,0.0,0.006889000000000001,0.0,0.0,0.0,0.006889000000000001
1349442730.131847,204,1349442730,134008884,auk,-0.012742838625448602,0.0012110570962479547,0.36344540121403257,0.9315275593029153,0.0,0.0,0.0,0.0,0.0,0.0,0.0,0.0,0.0,0.0036651914291880917,-0.011519173063162573,0.0002617993877991494,0.000169,0.0,0.0,0.0,0.000169,0.0,0.0,0.0,0.000169,-0.12752999999999998,-0.17658,9.85905,0.006889000000000001,0.0,0.0,0.0,0.006889000000000001,0.0,0.0,0.0,0.006889000000000001
1349442730.1516058,205,1349442730,154006958,auk,-0.012661764174195435,0.0012405638102749974,0.36360787103234715,0.9314652204203622,0.0,0.0,0.0,0.0,0.0,0.0,0.0,0.0,0.0,0.0015707963267948964,-0.014922565104551515,0.0,0.000169,0.0,0.0,0.0,0.000169,0.0,0.0,0.0,0.000169,-0.08829,-0.22563,9.84924,0.006889000000000001,0.0,0.0,0.0,0.006889000000000001,0.0,0.0,0.0,0.006889000000000001
1349442730.1715758,206,1349442730,174006939,auk,-0.012711624429779963,0.0011242154153710384,0.36385107442425296,0.9313697151960509,0.0,0.0,0.0,0.0,0.0,0.0,0.0,0.0,0.0,-0.0034033920413889425,0.00445058959258554,-0.0018325957145940458,0.000169,0.0,0.0,0.0,0.000169,0.0,0.0,0.0,0.000169,-0.07848,-0.21581999999999998,9.89829,0.006889000000000001,0.0,0.0,0.0,0.006889000000000001,0.0,0.0,0.0,0.006889000000000001
1349442730.1915882,207,1349442730,194005013,auk,-0.012630548603063988,0.0011537629782175946,0.3640135242637413,0.9313073027878964,0.0,0.0,0.0,0.0,0.0,0.0,0.0,0.0,0.0,0.007330382858376183,0.00445058959258554,0.0005235987755982988,0.000169,0.0,0.0,0.0,0.000169,0.0,0.0,0.0,0.000169,-0.14715,-0.20600999999999997,9.9081,0.006889000000000001,0.0,0.0,0.0,0.006889000000000001,0.0,0.0,0.0,0.006889000000000001
1349442730.2116458,208,1349442730,214004993,auk,-0.012775555536721817,0.001282318881282096,0.36417765376909683,0.9312409877868622,0.0,0.0,0.0,0.0,0.0,0.0,0.0,0.0,0.0,0.001308996938995747,0.0010471975511965976,-0.006544984694978735,0.000169,0.0,0.0,0.0,0.000169,0.0,0.0,0.0,0.000169,-0.15696,-0.23543999999999998,9.9081,0.006889000000000001,0.0,0.0,0.0,0.006889000000000001,0.0,0.0,0.0,0.006889000000000001
1349442730.2316115,209,1349442730,234004974,auk,-0.012888823351635933,0.001329559161816339,0.36434103961983166,0.9311754492864306,0.0,0.0,0.0,0.0,0.0,0.0,0.0,0.0,0.0,-0.0002617993877991494,0.007592182246175333,-0.006283185307179586,0.000169,0.0,0.0,0.0,0.000169,0.0,0.0,0.0,0.000169,-0.12752999999999998,-0.22563,9.88848,0.006889000000000001,0.0,0.0,0.0,0.006889000000000001,0.0,0.0,0.0,0.006889000000000001
1349442730.257086,210,1349442730,254003048,auk,-0.013001987503362695,0.0013778944340313752,0.3644231662656612,0.9311416678555424,0.0,0.0,0.0,0.0,0.0,0.0,0.0,0.0,0.0,-0.0010471975511965976,0.008377580409572781,-0.019373154697137056,0.000169,0.0,0.0,0.0,0.000169,0.0,0.0,0.0,0.000169,-0.12752999999999998,-0.24524999999999997,9.87867,0.006889000000000001,0.0,0.0,0.0,0.006889000000000001,0.0,0.0,0.0,0.006889000000000001
1349442730.2717247,211,1349442730,274003029,auk,-0.01311528425096845,0.001425065293933942,0.3645865515219548,0.9310760468174731,0.0,0.0,0.0,0.0,0.0,0.0,0.0,0.0,0.0,-0.0034033920413889425,0.0015707963267948964,-0.0005235987755982988,0.000169,0.0,0.0,0.0,0.000169,0.0,0.0,0.0,0.000169,-0.11771999999999999,-0.24524999999999997,9.9081,0.006889000000000001,0.0,0.0,0.0,0.006889000000000001,0.0,0.0,0.0,0.006889000000000001
1349442730.2917194,212,1349442730,294003010,auk,-0.013083713971124317,0.0013415255122951634,0.3647482922743081,0.9310132652228957,0.0,0.0,0.0,0.0,0.0,0.0,0.0,0.0,0.0,0.008115781021773632,-0.003141592653589793,0.0018325957145940458,0.000169,0.0,0.0,0.0,0.000169,0.0,0.0,0.0,0.000169,-0.08829,-0.20600999999999997,9.937529999999999,0.006889000000000001,0.0,0.0,0.0,0.006889000000000001,0.0,0.0,0.0,0.006889000000000001
1349442730.3116853,213,1349442730,314000845,auk,-0.012970874029152235,0.0012898411881821087,0.36490990826835695,0.930951583909823,0.0,0.0,0.0,0.0,0.0,0.0,0.0,0.0,0.0,0.015707963267948963,-0.0015707963267948964,0.0041887902047863905,0.000169,0.0,0.0,0.0,0.000169,0.0,0.0,0.0,0.000169,-0.06867,-0.20600999999999997,9.9081,0.006889000000000001,0.0,0.0,0.0,0.006889000000000001,0.0,0.0,0.0,0.006889000000000001
1349442730.3313463,214,1349442730,334000826,auk,-0.012939251517353508,0.001206337638782788,0.36507162912399754,0.9308887291875556,0.0,0.0,0.0,0.0,0.0,0.0,0.0,0.0,0.0,0.016755160819145562,0.0002617993877991494,-0.0034033920413889425,0.000169,0.0,0.0,0.0,0.000169,0.0,0.0,0.0,0.000169,-0.07848,-0.22563,9.88848,0.006889000000000001,0.0,0.0,0.0,0.006889000000000001,0.0,0.0,0.0,0.006889000000000001
1349442730.3512383,215,1349442730,353998899,auk,-0.012777002059910768,0.001267824651200661,0.3652338785814403,0.9308272421751379,0.0,0.0,0.0,0.0,0.0,0.0,0.0,0.0,0.0,0.0018325957145940458,0.0028797932657906433,-0.001308996938995747,0.000169,0.0,0.0,0.0,0.000169,0.0,0.0,0.0,0.000169,-0.11771999999999999,-0.20600999999999997,9.89829,0.006889000000000001,0.0,0.0,0.0,0.006889000000000001,0.0,0.0,0.0,0.006889000000000001
1349442730.3713408,216,1349442730,373998880,auk,-0.01272763384417087,0.001380931635365167,0.36523450042582895,0.9308275135938142,0.0,0.0,0.0,0.0,0.0,0.0,0.0,0.0,0.0,-0.00445058959258554,-0.009162978572970229,0.006544984694978735,0.000169,0.0,0.0,0.0,0.000169,0.0,0.0,0.0,0.000169,-0.13734,-0.20600999999999997,9.88848,0.006889000000000001,0.0,0.0,0.0,0.006889000000000001,0.0,0.0,0.0,0.006889000000000001
1349442730.3912747,217,1349442730,393998861,auk,-0.012840475653734803,0.0014325342606616052,0.36507289245739205,0.9308892808617851,0.0,0.0,0.0,0.0,0.0,0.0,0.0,0.0,0.0,0.010210176124166827,-0.007592182246175333,-0.0028797932657906433,0.000169,0.0,0.0,0.0,0.000169,0.0,0.0,0.0,0.000169,-0.13734,-0.23543999999999998,9.9081,0.006889000000000001,0.0,0.0,0.0,0.006889000000000001,0.0,0.0,0.0,0.006889000000000001
1349442730.4112232,218,1349442730,413996935,auk,-0.012790952720610094,0.001546748960611171,0.36499225768745214,0.9309213988970115,0.0,0.0,0.0,0.0,0.0,0.0,0.0,0.0,0.0,-0.003926990816987241,-0.009162978572970229,0.002356194490192345,0.000169,0.0,0.0,0.0,0.000169,0.0,0.0,0.0,0.000169,-0.12752999999999998,-0.19619999999999999,9.87867,0.006889000000000001,0.0,0.0,0.0,0.006889000000000001,0.0,0.0,0.0,0.006889000000000001
1349442730.4316177,219,1349442730,433996916,auk,-0.012773090983900448,0.0017433152539094764,0.36483107398240094,0.9309844770217657,0.0,0.0,0.0,0.0,0.0,0.0,0.0,0.0,0.0,-0.007592182246175333,0.002617993877991494,-0.002617993877991494,0.000169,0.0,0.0,0.0,0.000169,0.0,0.0,0.0,0.000169,-0.12752999999999998,-0.18639,9.87867,0.006889000000000001,0.0,0.0,0.0,0.006889000000000001,0.0,0.0,0.0,0.006889000000000001
1349442730.4516604,220,1349442730,453994989,auk,-0.012723349066988174,0.0018586217166795095,0.36466913358611186,0.9310483794751958,0.0,0.0,0.0,0.0,0.0,0.0,0.0,0.0,0.0,-0.006544984694978735,-0.001308996938995747,-0.0020943951023931952,0.000169,0.0,0.0,0.0,0.000169,0.0,0.0,0.0,0.000169,-0.13734,-0.21581999999999998,9.88848,0.006889000000000001,0.0,0.0,0.0,0.006889000000000001,0.0,0.0,0.0,0.006889000000000001
1349442730.471577,221,1349442730,473994970,auk,-0.012804279285545266,0.0018290331205006293,0.36450679043672557,0.9311108982260593,0.0,0.0,0.0,0.0,0.0,0.0,0.0,0.0,0.0,-0.007592182246175333,-0.010733774899765125,-0.001308996938995747,0.000169,0.0,0.0,0.0,0.000169,0.0,0.0,0.0,0.000169,-0.11771999999999999,-0.22563,9.89829,0.006889000000000001,0.0,0.0,0.0,0.006889000000000001,0.0,0.0,0.0,0.006889000000000001
1349442730.491503,222,1349442730,493994951,auk,-0.012885220120063273,0.001799472817937086,0.3643444337979902,0.9311733815785637,0.0,0.0,0.0,0.0,0.0,0.0,0.0,0.0,0.0,0.0,-0.00445058959258554,0.013875367553354919,0.000169,0.0,0.0,0.0,0.000169,0.0,0.0,0.0,0.000169,-0.14715,-0.23543999999999998,9.91791,0.006889000000000001,0.0,0.0,0.0,0.006889000000000001,0.0,0.0,0.0,0.006889000000000001
1349442730.5117257,223,1349442730,513993025,auk,-0.012997940555957297,0.001851211090241345,0.36418278895657785,0.9312349449986358,0.0,0.0,0.0,0.0,0.0,0.0,0.0,0.0,0.0,-0.0010471975511965976,-0.015969762655748114,-0.0005235987755982988,0.000169,0.0,0.0,0.0,0.000169,0.0,0.0,0.0,0.000169,-0.15696,-0.22563,9.89829,0.006889000000000001,0.0,0.0,0.0,0.006889000000000001,0.0,0.0,0.0,0.006889000000000001
1349442730.531717,224,1349442730,533993006,auk,-0.013078888336190406,0.0018217128638752097,0.36402041261210766,0.9312973549000567,0.0,0.0,0.0,0.0,0.0,0.0,0.0,0.0,0.0,0.0015707963267948964,0.003141592653589793,0.012304571226560023,0.000169,0.0,0.0,0.0,0.000169,0.0,0.0,0.0,0.000169,-0.10790999999999999,-0.24524999999999997,9.86886,0.006889000000000001,0.0,0.0,0.0,0.006889000000000001,0.0,0.0,0.0,0.006889000000000001
1349442730.5518022,225,1349442730,553992987,auk,-0.013160003059704235,0.0017910945169895588,0.36393929788859386,0.9313279732469423,0.0,0.0,0.0,0.0,0.0,0.0,0.0,0.0,0.0,-0.006021385919380436,0.005497787143782138,-0.006283185307179586,0.000169,0.0,0.0,0.0,0.000169,0.0,0.0,0.0,0.000169,-0.11771999999999999,-0.25505999999999995,9.87867,0.006889000000000001,0.0,0.0,0.0,0.006889000000000001,0.0,0.0,0.0,0.006889000000000001
1349442730.5716844,226,1349442730,573990822,auk,-0.013191750520500149,0.001872372968027735,0.3639400348123861,0.9313270762725804,0.0,0.0,0.0,0.0,0.0,0.0,0.0,0.0,0.0,0.009162978572970229,0.006283185307179586,0.006806784082777885,0.000169,0.0,0.0,0.0,0.000169,0.0,0.0,0.0,0.000169,-0.13734,-0.20600999999999997,9.89829,0.006889000000000001,0.0,0.0,0.0,0.006889000000000001,0.0,0.0,0.0,0.006889000000000001
1349442730.5916839,227,1349442730,593991041,auk,-0.013110144317367263,0.0019064209011567818,0.3637773170497016,0.9313917292286025,0.0,0.0,0.0,0.0,0.0,0.0,0.0,0.0,0.0,-0.0018325957145940458,0.005235987755982988,0.0018325957145940458,0.000169,0.0,0.0,0.0,0.000169,0.0,0.0,0.0,0.000169,-0.12752999999999998,-0.20600999999999997,9.85905,0.006889000000000001,0.0,0.0,0.0,0.006889000000000001,0.0,0.0,0.0,0.006889000000000001
1349442730.6114397,228,1349442730,613988876,auk,-0.01306024567788272,0.0020217300305776257,0.36361530531610275,0.9314554483873044,0.0,0.0,0.0,0.0,0.0,0.0,0.0,0.0,0.0,0.0007853981633974482,0.006806784082777885,-0.01727875959474386,0.000169,0.0,0.0,0.0,0.000169,0.0,0.0,0.0,0.000169,-0.12752999999999998,-0.20600999999999997,9.829619999999998,0.006889000000000001,0.0,0.0,0.0,0.006889000000000001,0.0,0.0,0.0,0.006889000000000001
1349442730.6317995,229,1349442730,633988857,auk,-0.012865956535257482,0.0020039030771750706,0.3636142408271435,0.9314586063817277,0.0,0.0,0.0,0.0,0.0,0.0,0.0,0.0,0.0,0.009686577348568528,-0.010471975511965976,-0.0007853981633974482,0.000169,0.0,0.0,0.0,0.000169,0.0,0.0,0.0,0.000169,-0.09809999999999999,-0.19619999999999999,9.87867,0.006889000000000001,0.0,0.0,0.0,0.006889000000000001,0.0,0.0,0.0,0.006889000000000001
1349442730.6535153,230,1349442730,653988838,auk,-0.012752610621446791,0.00195657033629438,0.36345078671950803,0.9315240567950072,0.0,0.0,0.0,0.0,0.0,0.0,0.0,0.0,0.0,-0.0057595865315812865,0.0,-0.0005235987755982988,0.000169,0.0,0.0,0.0,0.000169,0.0,0.0,0.0,0.000169,-0.09809999999999999,-0.20600999999999997,9.9081,0.006889000000000001,0.0,0.0,0.0,0.006889000000000001,0.0,0.0,0.0,0.006889000000000001
1349442730.671565,231,1349442730,673986912,auk,-0.012639281277583583,0.0019091979401677905,0.36328732949820963,0.9315894588057931,0.0,0.0,0.0,0.0,0.0,0.0,0.0,0.0,0.0,0.01282817000215832,0.005497787143782138,0.002356194490192345,0.000169,0.0,0.0,0.0,0.000169,0.0,0.0,0.0,0.000169,-0.11771999999999999,-0.19619999999999999,9.88848,0.006889000000000001,0.0,0.0,0.0,0.006889000000000001,0.0,0.0,0.0,0.006889000000000001
1349442730.6913452,232,1349442730,693986893,auk,-0.012557815289536513,0.0019419966165219538,0.36320586351016254,0.9316222574821473,0.0,0.0,0.0,0.0,0.0,0.0,0.0,0.0,0.0,-0.006544984694978735,0.0002617993877991494,-0.01361356816555577,0.000169,0.0,0.0,0.0,0.000169,0.0,0.0,0.0,0.000169,-0.13734,-0.19619999999999999,9.87867,0.006889000000000001,0.0,0.0,0.0,0.006889000000000001,0.0,0.0,0.0,0.006889000000000001
1349442730.7112055,233,1349442730,713984966,auk,-0.012507661765951616,0.0020582707398454376,0.36296246564968304,0.9317175379095388,0.0,0.0,0.0,0.0,0.0,0.0,0.0,0.0,0.0,-0.0049741883681838385,0.00445058959258554,-0.01780235837034216,0.000169,0.0,0.0,0.0,0.000169,0.0,0.0,0.0,0.000169,-0.11771999999999999,-0.21581999999999998,9.87867,0.006889000000000001,0.0,0.0,0.0,0.006889000000000001,0.0,0.0,0.0,0.006889000000000001
1349442730.7316828,234,1349442730,733984947,auk,-0.012557136639784012,0.0019463800025929304,0.36288064387344177,0.9317489834855157,0.0,0.0,0.0,0.0,0.0,0.0,0.0,0.0,0.0,-0.006806784082777885,-0.01780235837034216,0.01335176877775662,0.000169,0.0,0.0,0.0,0.000169,0.0,0.0,0.0,0.000169,-0.09809999999999999,-0.23543999999999998,9.87867,0.006889000000000001,0.0,0.0,0.0,0.006889000000000001,0.0,0.0,0.0,0.006889000000000001
1349442730.7528858,235,1349442730,753984928,auk,-0.01260711093544355,0.0018311975369373961,0.3630427267607145,0.9316854007740957,0.0,0.0,0.0,0.0,0.0,0.0,0.0,0.0,0.0,0.007330382858376183,0.00445058959258554,-0.00445058959258554,0.000169,0.0,0.0,0.0,0.000169,0.0,0.0,0.0,0.000169,-0.08829,-0.23543999999999998,9.91791,0.006889000000000001,0.0,0.0,0.0,0.006889000000000001,0.0,0.0,0.0,0.006889000000000001
1349442730.7716095,236,1349442730,773983002,auk,-0.012657045364275532,0.001715997784354062,0.36320477878530805,0.9316217812083216,0.0,0.0,0.0,0.0,0.0,0.0,0.0,0.0,0.0,0.00942477796076938,-0.002617993877991494,-0.0057595865315812865,0.000169,0.0,0.0,0.0,0.000169,0.0,0.0,0.0,0.000169,-0.08829,-0.23543999999999998,9.89829,0.006889000000000001,0.0,0.0,0.0,0.006889000000000001,0.0,0.0,0.0,0.006889000000000001
1349442730.7915285,237,1349442730,793982983,auk,-0.012512653413210739,0.0015829019306638692,0.36336580627439496,0.9315611728472788,0.0,0.0,0.0,0.0,0.0,0.0,0.0,0.0,0.0,-0.0015707963267948964,-0.024085543677521744,0.008115781021773632,0.000169,0.0,0.0,0.0,0.000169,0.0,0.0,0.0,0.000169,-0.08829,-0.19619999999999999,9.86886,0.006889000000000001,0.0,0.0,0.0,0.006889000000000001,0.0,0.0,0.0,0.006889000000000001
1349442730.8114178,238,1349442730,813982964,auk,-0.01239939259684213,0.0015354773510935626,0.3632023683782467,0.9316265007914738,0.0,0.0,0.0,0.0,0.0,0.0,0.0,0.0,0.0,-0.0018325957145940458,0.0049741883681838385,0.0010471975511965976,0.000169,0.0,0.0,0.0,0.000169,0.0,0.0,0.0,0.000169,-0.09809999999999999,-0.20600999999999997,9.83943,0.006889000000000001,0.0,0.0,0.0,0.006889000000000001,0.0,0.0,0.0,0.006889000000000001
1349442730.831778,239,1349442730,833981037,auk,-0.012399124416636277,0.001537641429956541,0.36303976334880744,0.9316898773734614,0.0,0.0,0.0,0.0,0.0,0.0,0.0,0.0,0.0,0.007592182246175333,-0.003926990816987241,0.0049741883681838385,0.000169,0.0,0.0,0.0,0.000169,0.0,0.0,0.0,0.000169,-0.12752999999999998,-0.20600999999999997,9.829619999999998,0.006889000000000001,0.0,0.0,0.0,0.006889000000000001,0.0,0.0,0.0,0.006889000000000001
1349442730.8514395,240,1349442730,853981018,auk,-0.012299546943538894,0.0017657695470438264,0.36287825153817255,0.931753710893329,0.0,0.0,0.0,0.0,0.0,0.0,0.0,0.0,0.0,-0.0015707963267948964,-0.0018325957145940458,-0.011780972450961723,0.000169,0.0,0.0,0.0,0.000169,0.0,0.0,0.0,0.000169,-0.13734,-0.20600999999999997,9.86886,0.006889000000000001,0.0,0.0,0.0,0.006889000000000001,0.0,0.0,0.0,0.006889000000000001
1349442730.8713605,241,1349442730,873978853,auk,-0.012493513099124573,0.0017859307830581468,0.3627166268170783,0.9318140217941133,0.0,0.0,0.0,0.0,0.0,0.0,0.0,0.0,0.0,-0.010210176124166827,-0.0028797932657906433,0.007068583470577034,0.000169,0.0,0.0,0.0,0.000169,0.0,0.0,0.0,0.000169,-0.14715,-0.22563,9.9081,0.006889000000000001,0.0,0.0,0.0,0.006889000000000001,0.0,0.0,0.0,0.006889000000000001
1349442730.8917005,242,1349442730,893978834,auk,-0.012606150394543662,0.0018377983534688122,0.3625548476828052,0.9318753617792135,0.0,0.0,0.0,0.0,0.0,0.0,0.0,0.0,0.0,0.012304571226560023,-0.016755160819145562,-0.0041887902047863905,0.000169,0.0,0.0,0.0,0.000169,0.0,0.0,0.0,0.000169,-0.14715,-0.21581999999999998,9.9081,0.006889000000000001,0.0,0.0,0.0,0.006889000000000001,0.0,0.0,0.0,0.006889000000000001
1349442730.9115448,243,1349442730,913979053,auk,-0.012556286175971671,0.0019518589016121104,0.36247405715356756,0.9319072313352481,0.0,0.0,0.0,0.0,0.0,0.0,0.0,0.0,0.0,0.0015707963267948964,-0.002356194490192345,-0.011780972450961723,0.000169,0.0,0.0,0.0,0.000169,0.0,0.0,0.0,0.000169,-0.13734,-0.20600999999999997,9.87867,0.006889000000000001,0.0,0.0,0.0,0.006889000000000001,0.0,0.0,0.0,0.006889000000000001
1349442730.931646,244,1349442730,933976889,auk,-0.012506762485306296,0.0020637280407279617,0.3625558926427404,0.9318758214637484,0.0,0.0,0.0,0.0,0.0,0.0,0.0,0.0,0.0,-0.002617993877991494,0.0034033920413889425,-0.006283185307179586,0.000169,0.0,0.0,0.0,0.000169,0.0,0.0,0.0,0.000169,-0.12752999999999998,-0.18639,9.85905,0.006889000000000001,0.0,0.0,0.0,0.006889000000000001,0.0,0.0,0.0,0.006889000000000001
1349442730.9515076,245,1349442730,953976870,auk,-0.012538764141512303,0.002142865601658343,0.3627192114580103,0.9318116554111651,0.0,0.0,0.0,0.0,0.0,0.0,0.0,0.0,0.0,0.00471238898038469,-0.00445058959258554,-0.00471238898038469,0.000169,0.0,0.0,0.0,0.000169,0.0,0.0,0.0,0.000169,-0.13734,-0.21581999999999998,9.87867,0.006889000000000001,0.0,0.0,0.0,0.006889000000000001,0.0,0.0,0.0,0.006889000000000001
1349442730.9715517,246,1349442730,973974943,auk,-0.012489679975718641,0.0022525695794001696,0.36296362988640507,0.9317168760970679,0.0,0.0,0.0,0.0,0.0,0.0,0.0,0.0,0.0,0.0049741883681838385,-0.0007853981633974482,0.006283185307179586,0.000169,0.0,0.0,0.0,0.000169,0.0,0.0,0.0,0.000169,-0.13734,-0.20600999999999997,9.89829,0.006889000000000001,0.0,0.0,0.0,0.006889000000000001,0.0,0.0,0.0,0.006889000000000001
1349442730.9912837,247,1349442730,993974924,auk,-0.012634728789223448,0.002381314090269597,0.3631277826906322,0.9316506353831414,0.0,0.0,0.0,0.0,0.0,0.0,0.0,0.0,0.0,0.003141592653589793,0.012304571226560023,0.01858775653373961,0.000169,0.0,0.0,0.0,0.000169,0.0,0.0,0.0,0.000169,-0.13734,-0.23543999999999998,9.84924,0.006889000000000001,0.0,0.0,0.0,0.006889000000000001,0.0,0.0,0.0,0.006889000000000001
1349442731.0112884,248,1349442731,13974905,auk,-0.012716440489621143,0.002347405802382881,0.36329058710282,0.9315861372679185,0.0,0.0,0.0,0.0,0.0,0.0,0.0,0.0,0.0,0.0034033920413889425,0.005497787143782138,0.002617993877991494,0.000169,0.0,0.0,0.0,0.000169,0.0,0.0,0.0,0.000169,-0.11771999999999999,-0.25505999999999995,9.86886,0.006889000000000001,0.0,0.0,0.0,0.006889000000000001,0.0,0.0,0.0,0.006889000000000001
1349442731.031811,249,1349442731,33972979,auk,-0.012766435566035118,0.0022321736587348094,0.36345269077084713,0.9315225048785061,0.0,0.0,0.0,0.0,0.0,0.0,0.0,0.0,0.0,-0.008377580409572781,0.011780972450961723,-0.00863937979737193,0.000169,0.0,0.0,0.0,0.000169,0.0,0.0,0.0,0.000169,-0.11771999999999999,-0.22563,9.9081,0.006889000000000001,0.0,0.0,0.0,0.006889000000000001,0.0,0.0,0.0,0.006889000000000001
1349442731.0573819,250,1349442731,53972960,auk,-0.012815836118280313,0.002120279475205172,0.36337089575650033,0.9315539978319317,0.0,0.0,0.0,0.0,0.0,0.0,0.0,0.0,0.0,0.0034033920413889425,-0.01282817000215832,-0.009162978572970229,0.000169,0.0,0.0,0.0,0.000169,0.0,0.0,0.0,0.000169,-0.12752999999999998,-0.22563,9.9081,0.006889000000000001,0.0,0.0,0.0,0.006889000000000001,0.0,0.0,0.0,0.006889000000000001
1349442731.0715303,251,1349442731,73971033,auk,-0.012896764770934386,0.002090820316402302,0.3632084872201358,0.9316162819208926,0.0,0.0,0.0,0.0,0.0,0.0,0.0,0.0,0.0,-0.00890117918517108,0.00942477796076938,0.00890117918517108,0.000169,0.0,0.0,0.0,0.000169,0.0,0.0,0.0,0.000169,-0.08829,-0.24524999999999997,9.87867,0.006889000000000001,0.0,0.0,0.0,0.006889000000000001,0.0,0.0,0.0,0.006889000000000001
1349442731.091583,252,1349442731,93971014,auk,-0.013027338755400575,0.0019483987013059765,0.36304552292581704,0.9316782923686548,0.0,0.0,0.0,0.0,0.0,0.0,0.0,0.0,0.0,-0.015184364492350666,0.003141592653589793,-0.016755160819145562,0.000169,0.0,0.0,0.0,0.000169,0.0,0.0,0.0,0.000169,-0.07848,-0.23543999999999998,9.86886,0.006889000000000001,0.0,0.0,0.0,0.006889000000000001,0.0,0.0,0.0,0.006889000000000001
1349442731.1114488,253,1349442731,113970995,auk,-0.013044997523105156,0.0017563758836486882,0.3628816132526881,0.9317422808623124,0.0,0.0,0.0,0.0,0.0,0.0,0.0,0.0,0.0,0.01308996938995747,0.01361356816555577,0.002356194490192345,0.000169,0.0,0.0,0.0,0.000169,0.0,0.0,0.0,0.000169,-0.10790999999999999,-0.23543999999999998,9.87867,0.006889000000000001,0.0,0.0,0.0,0.006889000000000001,0.0,0.0,0.0,0.006889000000000001
1349442731.1318054,254,1349442731,133968830,auk,-0.013094364867350694,0.0016456794631602312,0.3627183964891314,0.9318053413649111,0.0,0.0,0.0,0.0,0.0,0.0,0.0,0.0,0.0,-0.018064157758141308,0.01858775653373961,-0.0034033920413889425,0.000169,0.0,0.0,0.0,0.000169,0.0,0.0,0.0,0.000169,-0.11771999999999999,-0.25505999999999995,9.87867,0.006889000000000001,0.0,0.0,0.0,0.006889000000000001,0.0,0.0,0.0,0.006889000000000001
1349442731.1516314,255,1349442731,153969049,auk,-0.01328834589359151,0.0016660122495155512,0.3625568003252668,0.931865446727424,0.0,0.0,0.0,0.0,0.0,0.0,0.0,0.0,0.0,-0.00445058959258554,0.01361356816555577,0.011780972450961723,0.000169,0.0,0.0,0.0,0.000169,0.0,0.0,0.0,0.000169,-0.12752999999999998,-0.23543999999999998,9.927719999999999,0.006889000000000001,0.0,0.0,0.0,0.006889000000000001,0.0,0.0,0.0,0.006889000000000001
1349442731.171271,256,1349442731,173966885,auk,-0.013337904049117983,0.0015542118620407736,0.3624748573073641,0.9318968089660307,0.0,0.0,0.0,0.0,0.0,0.0,0.0,0.0,0.0,-0.002617993877991494,0.0,0.007330382858376183,0.000169,0.0,0.0,0.0,0.000169,0.0,0.0,0.0,0.000169,-0.10790999999999999,-0.22563,9.927719999999999,0.006889000000000001,0.0,0.0,0.0,0.006889000000000001,0.0,0.0,0.0,0.006889000000000001
1349442731.1916127,257,1349442731,193966866,auk,-0.013224697974923452,0.0015068237952961128,0.3623113069369313,0.9319620988598059,0.0,0.0,0.0,0.0,0.0,0.0,0.0,0.0,0.0,-0.01308996938995747,-0.011780972450961723,-0.011780972450961723,0.000169,0.0,0.0,0.0,0.000169,0.0,0.0,0.0,0.000169,-0.09809999999999999,-0.21581999999999998,9.88848,0.006889000000000001,0.0,0.0,0.0,0.006889000000000001,0.0,0.0,0.0,0.006889000000000001
1349442731.2114873,258,1349442731,213966846,auk,-0.01311176301064032,0.0014571076928217627,0.3623104174396168,0.9319641194395067,0.0,0.0,0.0,0.0,0.0,0.0,0.0,0.0,0.0,-0.0041887902047863905,-0.00445058959258554,-0.0041887902047863905,0.000169,0.0,0.0,0.0,0.000169,0.0,0.0,0.0,0.000169,-0.07848,-0.20600999999999997,9.84924,0.006889000000000001,0.0,0.0,0.0,0.006889000000000001,0.0,0.0,0.0,0.006889000000000001
1349442731.2316682,259,1349442731,233964920,auk,-0.012998827695419601,0.0014073914358580623,0.3623095366194124,0.931966120308307,0.0,0.0,0.0,0.0,0.0,0.0,0.0,0.0,0.0,-0.010471975511965976,0.00445058959258554,-0.0010471975511965976,0.000169,0.0,0.0,0.0,0.000169,0.0,0.0,0.0,0.000169,-0.09809999999999999,-0.21581999999999998,9.85905,0.006889000000000001,0.0,0.0,0.0,0.006889000000000001,0.0,0.0,0.0,0.006889000000000001
1349442731.2535388,260,1349442731,253964901,auk,-0.012917498259444875,0.001439008902085901,0.36230941242176806,0.9319672511213526,0.0,0.0,0.0,0.0,0.0,0.0,0.0,0.0,0.0,-0.00471238898038469,-0.018064157758141308,-0.00471238898038469,0.000169,0.0,0.0,0.0,0.000169,0.0,0.0,0.0,0.000169,-0.16676999999999997,-0.22563,9.89829,0.006889000000000001,0.0,0.0,0.0,0.006889000000000001,0.0,0.0,0.0,0.006889000000000001
1349442731.271643,261,1349442731,273964882,auk,-0.0130617654770975,0.0015723387563308646,0.3621483744391054,0.9320276138208407,0.0,0.0,0.0,0.0,0.0,0.0,0.0,0.0,0.0,-0.011257373675363424,0.0002617993877991494,0.0057595865315812865,0.000169,0.0,0.0,0.0,0.000169,0.0,0.0,0.0,0.000169,-0.16676999999999997,-0.23543999999999998,9.927719999999999,0.006889000000000001,0.0,0.0,0.0,0.006889000000000001,0.0,0.0,0.0,0.006889000000000001
1349442731.2913084,262,1349442731,293962955,auk,-0.013174408456483785,0.0016243739616922078,0.3619865896208651,0.93208878617099,0.0,0.0,0.0,0.0,0.0,0.0,0.0,0.0,0.0,0.007853981633974482,-0.010471975511965976,0.0,0.000169,0.0,0.0,0.0,0.000169,0.0,0.0,0.0,0.000169,-0.14715,-0.23543999999999998,9.91791,0.006889000000000001,0.0,0.0,0.0,0.006889000000000001,0.0,0.0,0.0,0.006889000000000001
1349442731.3112662,263,1349442731,313962936,auk,-0.013287325705369984,0.0016741293267487503,0.361987488507404,0.9320867461940969,0.0,0.0,0.0,0.0,0.0,0.0,0.0,0.0,0.0,-0.006283185307179586,0.0010471975511965976,0.006021385919380436,0.000169,0.0,0.0,0.0,0.000169,0.0,0.0,0.0,0.000169,-0.13734,-0.21581999999999998,9.86886,0.006889000000000001,0.0,0.0,0.0,0.006889000000000001,0.0,0.0,0.0,0.006889000000000001
1349442731.3317096,264,1349442731,333962917,auk,-0.013174550159688752,0.0016232242714856685,0.3620679283336172,0.9320571933327144,0.0,0.0,0.0,0.0,0.0,0.0,0.0,0.0,0.0,-0.01361356816555577,0.009686577348568528,0.016755160819145562,0.000169,0.0,0.0,0.0,0.000169,0.0,0.0,0.0,0.000169,-0.09809999999999999,-0.18639,9.85905,0.006889000000000001,0.0,0.0,0.0,0.006889000000000001,0.0,0.0,0.0,0.006889000000000001
1349442731.351833,265,1349442731,353960991,auk,-0.012980150536143308,0.0016062076459723105,0.3619855606285689,0.9320919427210373,0.0,0.0,0.0,0.0,0.0,0.0,0.0,0.0,0.0,0.0034033920413889425,0.0010471975511965976,-0.0007853981633974482,0.000169,0.0,0.0,0.0,0.000169,0.0,0.0,0.0,0.000169,-0.08829,-0.19619999999999999,9.84924,0.006889000000000001,0.0,0.0,0.0,0.006889000000000001,0.0,0.0,0.0,0.006889000000000001
1349442731.371512,266,1349442731,373960972,auk,-0.012948306563205595,0.0015271226937811216,0.36182213150302234,0.9321559710735287,0.0,0.0,0.0,0.0,0.0,0.0,0.0,0.0,0.0,0.01727875959474386,0.0020943951023931952,-0.015446163880149815,0.000169,0.0,0.0,0.0,0.000169,0.0,0.0,0.0,0.000169,-0.10790999999999999,-0.22563,9.85905,0.006889000000000001,0.0,0.0,0.0,0.006889000000000001,0.0,0.0,0.0,0.006889000000000001
1349442731.391683,267,1349442731,393960953,auk,-0.012997841983187259,0.0014164659858355317,0.3616588132869743,0.932218832946293,0.0,0.0,0.0,0.0,0.0,0.0,0.0,0.0,0.0,0.00445058959258554,-0.028536133270107285,-0.0005235987755982988,0.000169,0.0,0.0,0.0,0.000169,0.0,0.0,0.0,0.000169,-0.11771999999999999,-0.22563,9.85905,0.006889000000000001,0.0,0.0,0.0,0.006889000000000001,0.0,0.0,0.0,0.006889000000000001
1349442731.411373,268,1349442731,413959026,auk,-0.012947772707978714,0.001531642412293411,0.36149672564941837,0.9322822140308012,0.0,0.0,0.0,0.0,0.0,0.0,0.0,0.0,0.0,0.0018325957145940458,-0.003926990816987241,-0.0010471975511965976,0.000169,0.0,0.0,0.0,0.000169,0.0,0.0,0.0,0.000169,-0.14715,-0.19619999999999999,9.85905,0.006889000000000001,0.0,0.0,0.0,0.006889000000000001,0.0,0.0,0.0,0.006889000000000001
1349442731.4317806,269,1349442731,433959007,auk,-0.012897663579001123,0.0016468015075992836,0.36133460719979205,0.9323455582340537,0.0,0.0,0.0,0.0,0.0,0.0,0.0,0.0,0.0,0.003926990816987241,0.01361356816555577,0.0015707963267948964,0.000169,0.0,0.0,0.0,0.000169,0.0,0.0,0.0,0.000169,-0.14715,-0.21581999999999998,9.87867,0.006889000000000001,0.0,0.0,0.0,0.006889000000000001,0.0,0.0,0.0,0.006889000000000001
1349442731.453661,270,1349442731,453958988,auk,-0.012928882576649502,0.0017304250084407315,0.3611726103308452,0.9324077408362785,0.0,0.0,0.0,0.0,0.0,0.0,0.0,0.0,0.0,0.01308996938995747,-0.0005235987755982988,0.011780972450961723,0.000169,0.0,0.0,0.0,0.000169,0.0,0.0,0.0,0.000169,-0.11771999999999999,-0.21581999999999998,9.89829,0.006889000000000001,0.0,0.0,0.0,0.006889000000000001,0.0,0.0,0.0,0.006889000000000001
1349442731.4716547,271,1349442731,473956823,auk,-0.012815714401356221,0.0016828075249515177,0.36100898971944834,0.9324727529343472,0.0,0.0,0.0,0.0,0.0,0.0,0.0,0.0,0.0,0.009948376736367677,0.002356194490192345,0.006283185307179586,0.000169,0.0,0.0,0.0,0.000169,0.0,0.0,0.0,0.000169,-0.10790999999999999,-0.17658,9.87867,0.006889000000000001,0.0,0.0,0.0,0.006889000000000001,0.0,0.0,0.0,0.006889000000000001
1349442731.4915807,272,1349442731,493957043,auk,-0.012702990545506103,0.001631824860599239,0.3610894915591708,0.9324432155709884,0.0,0.0,0.0,0.0,0.0,0.0,0.0,0.0,0.0,-0.007853981633974482,0.005235987755982988,-0.014922565104551515,0.000169,0.0,0.0,0.0,0.000169,0.0,0.0,0.0,0.000169,-0.11771999999999999,-0.19619999999999999,9.87867,0.006889000000000001,0.0,0.0,0.0,0.006889000000000001,0.0,0.0,0.0,0.006889000000000001
1349442731.5115433,273,1349442731,513957024,auk,-0.012752729132533253,0.0015200514463063431,0.36100752810942344,0.9324744618441821,0.0,0.0,0.0,0.0,0.0,0.0,0.0,0.0,0.0,0.010471975511965976,0.005235987755982988,0.0034033920413889425,0.000169,0.0,0.0,0.0,0.000169,0.0,0.0,0.0,0.000169,-0.08829,-0.23543999999999998,9.85905,0.006889000000000001,0.0,0.0,0.0,0.006889000000000001,0.0,0.0,0.0,0.006889000000000001
1349442731.5315442,274,1349442731,533954859,auk,-0.01277088573241983,0.0013280205550486235,0.36084341948171283,0.9325380246701791,0.0,0.0,0.0,0.0,0.0,0.0,0.0,0.0,0.0,0.00471238898038469,0.00445058959258554,-0.014660765716752367,0.000169,0.0,0.0,0.0,0.000169,0.0,0.0,0.0,0.000169,-0.09809999999999999,-0.22563,9.84924,0.006889000000000001,0.0,0.0,0.0,0.006889000000000001,0.0,0.0,0.0,0.006889000000000001
1349442731.5517735,275,1349442731,553954840,auk,-0.012689268916700592,0.0013617247946741675,0.36068053793773824,0.9326021004227297,0.0,0.0,0.0,0.0,0.0,0.0,0.0,0.0,0.0,0.008377580409572781,-0.018064157758141308,0.0002617993877991494,0.000169,0.0,0.0,0.0,0.000169,0.0,0.0,0.0,0.000169,-0.12752999999999998,-0.21581999999999998,9.89829,0.006889000000000001,0.0,0.0,0.0,0.006889000000000001,0.0,0.0,0.0,0.006889000000000001
1349442731.5718157,276,1349442731,573954821,auk,-0.012801871577969717,0.0014138728358446375,0.3605186255449644,0.932663086909134,0.0,0.0,0.0,0.0,0.0,0.0,0.0,0.0,0.0,0.00942477796076938,-0.005235987755982988,0.011519173063162573,0.000169,0.0,0.0,0.0,0.000169,0.0,0.0,0.0,0.000169,-0.11771999999999999,-0.22563,9.87867,0.006889000000000001,0.0,0.0,0.0,0.006889000000000001,0.0,0.0,0.0,0.006889000000000001
1349442731.5913,277,1349442731,593952894,auk,-0.012995851554235235,0.00143461301026304,0.36035683813500224,0.9327228950429141,0.0,0.0,0.0,0.0,0.0,0.0,0.0,0.0,0.0,0.0007853981633974482,-0.0057595865315812865,0.007853981633974482,0.000169,0.0,0.0,0.0,0.000169,0.0,0.0,0.0,0.000169,-0.11771999999999999,-0.22563,9.85905,0.006889000000000001,0.0,0.0,0.0,0.006889000000000001,0.0,0.0,0.0,0.006889000000000001
1349442731.6111605,278,1349442731,613952875,auk,-0.012832668015626138,0.0015008667571944833,0.36011238303981014,0.9328194582082683,0.0,0.0,0.0,0.0,0.0,0.0,0.0,0.0,0.0,-0.010471975511965976,0.0018325957145940458,0.005497787143782138,0.000169,0.0,0.0,0.0,0.000169,0.0,0.0,0.0,0.000169,-0.10790999999999999,-0.19619999999999999,9.89829,0.006889000000000001,0.0,0.0,0.0,0.006889000000000001,0.0,0.0,0.0,0.006889000000000001
1349442731.6315799,279,1349442731,633952856,auk,-0.012719342235054594,0.0014553242114362522,0.3597858769207121,0.9329470634140725,0.0,0.0,0.0,0.0,0.0,0.0,0.0,0.0,0.0,0.0028797932657906433,-0.01282817000215832,0.0015707963267948964,0.000169,0.0,0.0,0.0,0.000169,0.0,0.0,0.0,0.000169,-0.10790999999999999,-0.21581999999999998,9.91791,0.006889000000000001,0.0,0.0,0.0,0.006889000000000001,0.0,0.0,0.0,0.006889000000000001
1349442731.6531105,280,1349442731,653950930,auk,-0.012800508459432612,0.001426161097058229,0.35962316728703003,0.9330087301832444,0.0,0.0,0.0,0.0,0.0,0.0,0.0,0.0,0.0,-0.00942477796076938,-0.006544984694978735,-0.01282817000215832,0.000169,0.0,0.0,0.0,0.000169,0.0,0.0,0.0,0.000169,-0.11771999999999999,-0.25505999999999995,9.89829,0.006889000000000001,0.0,0.0,0.0,0.006889000000000001,0.0,0.0,0.0,0.006889000000000001
1349442731.6714337,281,1349442731,673950911,auk,-0.012881685151151467,0.0013970263494470399,0.35946044434983865,0.9330703614695208,0.0,0.0,0.0,0.0,0.0,0.0,0.0,0.0,0.0,-0.012042771838760872,0.00445058959258554,0.0020943951023931952,0.000169,0.0,0.0,0.0,0.000169,0.0,0.0,0.0,0.000169,-0.09809999999999999,-0.21581999999999998,9.86886,0.006889000000000001,0.0,0.0,0.0,0.006889000000000001,0.0,0.0,0.0,0.006889000000000001
1349442731.69178,282,1349442731,693950891,auk,-0.012737322521875628,0.001267758059851025,0.3592959685285596,0.9331358745668284,0.0,0.0,0.0,0.0,0.0,0.0,0.0,0.0,0.0,-0.020420352248333655,0.009948376736367677,-0.005497787143782138,0.000169,0.0,0.0,0.0,0.000169,0.0,0.0,0.0,0.000169,-0.10790999999999999,-0.17658,9.87867,0.006889000000000001,0.0,0.0,0.0,0.006889000000000001,0.0,0.0,0.0,0.006889000000000001
1349442731.7115004,283,1349442731,713948965,auk,-0.012636886189635394,0.0014955440212138576,0.3591343402324973,0.9331991202960276,0.0,0.0,0.0,0.0,0.0,0.0,0.0,0.0,0.0,0.009162978572970229,0.008377580409572781,0.0015707963267948964,0.000169,0.0,0.0,0.0,0.000169,0.0,0.0,0.0,0.000169,-0.11771999999999999,-0.18639,9.87867,0.006889000000000001,0.0,0.0,0.0,0.006889000000000001,0.0,0.0,0.0,0.006889000000000001
1349442731.7316725,284,1349442731,733948946,auk,-0.01263662497549315,0.0014977495511363107,0.3589714607911366,0.9332617868492143,0.0,0.0,0.0,0.0,0.0,0.0,0.0,0.0,0.0,0.002356194490192345,0.001308996938995747,-0.007068583470577034,0.000169,0.0,0.0,0.0,0.000169,0.0,0.0,0.0,0.000169,-0.12752999999999998,-0.21581999999999998,9.83943,0.006889000000000001,0.0,0.0,0.0,0.006889000000000001,0.0,0.0,0.0,0.006889000000000001
1349442731.751738,285,1349442731,753947020,auk,-0.012586216504308889,0.0016127191459010043,0.3588091608517774,0.9333246875444292,0.0,0.0,0.0,0.0,0.0,0.0,0.0,0.0,0.0,0.009162978572970229,0.009162978572970229,-0.0010471975511965976,0.000169,0.0,0.0,0.0,0.000169,0.0,0.0,0.0,0.000169,-0.12752999999999998,-0.20600999999999997,9.86886,0.006889000000000001,0.0,0.0,0.0,0.006889000000000001,0.0,0.0,0.0,0.006889000000000001
1349442731.771241,286,1349442731,773947001,auk,-0.01253576824254548,0.0017276712883043128,0.35864683021128047,0.9333875512593307,0.0,0.0,0.0,0.0,0.0,0.0,0.0,0.0,0.0,-0.006283185307179586,-0.015184364492350666,-0.0002617993877991494,0.000169,0.0,0.0,0.0,0.000169,0.0,0.0,0.0,0.000169,-0.11771999999999999,-0.18639,9.88848,0.006889000000000001,0.0,0.0,0.0,0.006889000000000001,0.0,0.0,0.0,0.006889000000000001
1349442731.7915456,287,1349442731,793946981,auk,-0.012616777082633666,0.0016996765642959093,0.35840260732339685,0.9334803153250822,0.0,0.0,0.0,0.0,0.0,0.0,0.0,0.0,0.0,0.00942477796076938,-0.007068583470577034,-0.002617993877991494,0.000169,0.0,0.0,0.0,0.000169,0.0,0.0,0.0,0.000169,-0.11771999999999999,-0.22563,9.87867,0.006889000000000001,0.0,0.0,0.0,0.006889000000000001,0.0,0.0,0.0,0.006889000000000001
1349442731.8112254,288,1349442731,813945055,auk,-0.012666834640962688,0.0015880396900747693,0.3583205639726793,0.9335113297997099,0.0,0.0,0.0,0.0,0.0,0.0,0.0,0.0,0.0,-0.0057595865315812865,-0.0028797932657906433,0.0018325957145940458,0.000169,0.0,0.0,0.0,0.000169,0.0,0.0,0.0,0.000169,-0.10790999999999999,-0.26487,9.83943,0.006889000000000001,0.0,0.0,0.0,0.006889000000000001,0.0,0.0,0.0,0.006889000000000001
1349442731.8317761,289,1349442731,833945036,auk,-0.012779842757005336,0.0016360082378315674,0.3584843584809534,0.9334468189568442,0.0,0.0,0.0,0.0,0.0,0.0,0.0,0.0,0.0,0.0005235987755982988,0.003141592653589793,0.0002617993877991494,0.000169,0.0,0.0,0.0,0.000169,0.0,0.0,0.0,0.000169,-0.13734,-0.27468,9.819809999999999,0.006889000000000001,0.0,0.0,0.0,0.006889000000000001,0.0,0.0,0.0,0.006889000000000001
